#
# Results on Fri, 06 May 2022 07:45:46 GMT
# USER AGENT: Mozilla/5.0 (Windows NT 10.0; Win64; x64) AppleWebKit/537.36 (KHTML, like Gecko) Chrome/101.0.4951.41 Safari/537.36 Edg/101.0.1210.32
# Design number was non-random = 1
#
# Columns below this comment are as follows:
# 1. Results reception time.
# 2. MD5 hash of participant's IP address.
# 3. Controller name.
# 4. Order number of item.
# 5. Inner element number.
# 6. Label.
# 7. Latin Square Group.
# 8. PennElementType.
# 9. PennElementName.
# 10. Parameter.
# 11. Value.
# 12. EventTime.
# 13. ParticipantID.
# 14. Comments.
1651823146,e50605c6abcf1345994486909dca1218,PennController,1,0,anketa,NULL,PennController,0,_Trial_,Start,1651822954809,B548,NULL
1651823146,e50605c6abcf1345994486909dca1218,PennController,1,0,anketa,NULL,TextInput,id_response,Final,проба,1651822975493,B548,NULL
1651823146,e50605c6abcf1345994486909dca1218,PennController,1,0,anketa,NULL,TextInput,id_response,First,,1651822960733,B548,Shift
1651823146,e50605c6abcf1345994486909dca1218,PennController,1,0,anketa,NULL,TextInput,age_response,Final,1,1651822975493,B548,NULL
1651823146,e50605c6abcf1345994486909dca1218,PennController,1,0,anketa,NULL,TextInput,age_response,First,,1651822965748,B548,1
1651823146,e50605c6abcf1345994486909dca1218,PennController,1,0,anketa,NULL,TextInput,gorod1_response,Final,,1651822975494,B548,NULL
1651823146,e50605c6abcf1345994486909dca1218,PennController,1,0,anketa,NULL,TextInput,gorod2_response,Final,,1651822975494,B548,NULL
1651823146,e50605c6abcf1345994486909dca1218,PennController,1,0,anketa,NULL,TextInput,lang_response,Final,,1651822975494,B548,NULL
1651823146,e50605c6abcf1345994486909dca1218,PennController,1,0,anketa,NULL,Scale,gender_response,Choice,женский,1651822966510,B548,NULL
1651823146,e50605c6abcf1345994486909dca1218,PennController,1,0,anketa,NULL,Scale,lang_edu_response,Choice,нет,1651822971131,B548,NULL
1651823146,e50605c6abcf1345994486909dca1218,PennController,1,0,anketa,NULL,PennController,0,_Trial_,End,1651822975495,B548,NULL
# 13. Comments.
1651823146,e50605c6abcf1345994486909dca1218,PennController,2,0,instruction,NULL,PennController,1,_Trial_,Start,1651822975499,NULL
1651823146,e50605c6abcf1345994486909dca1218,PennController,2,0,instruction,NULL,Button,start,Click,Click,1651822977120,NULL
1651823146,e50605c6abcf1345994486909dca1218,PennController,2,0,instruction,NULL,PennController,1,_Trial_,End,1651822977122,NULL
# 13. ParticipantID.
# 14. group.
# 15. sentence_id.
# 16. lexicalization.
# 17. conjuncts_order.
# 18. agreement.
# 19. sentence.
# 20. predicate_type.
# 21. filler_type.
# 22. question.
# 23. answer_1.
# 24. answer_2.
# 25. answer_3.
# 26. correct_answer.
# 27. Comments.
1651823146,e50605c6abcf1345994486909dca1218,PennController,5,0,training_trials,NULL,PennController,5,_Trial_,Start,1651822977124,B548,Tr,289,0,NA,NA,"За рабочим процессом следили я и Андрей.",NA,good,"NA",NA,NA,NA,NA,NULL
1651823146,e50605c6abcf1345994486909dca1218,PennController,5,0,training_trials,NULL,Controller-AcceptabilityJudgment,AcceptabilityJudgment,За рабочим процессом следили я и Андрей.,NULL,1651822979334,B548,Tr,289,0,NA,NA,"За рабочим процессом следили я и Андрей.",NA,good,"NA",NA,NA,NA,NA,Any addtional parameters were appended as additional columns
# 27. Whether or not answer was correct (NULL if N/A).
# 28. Time taken to answer..
# 29. Comments.
1651823146,e50605c6abcf1345994486909dca1218,PennController,5,0,training_trials,NULL,Controller-AcceptabilityJudgment,AcceptabilityJudgment,NULL,7,1651822979334,B548,Tr,289,0,NA,NA,"За рабочим процессом следили я и Андрей.",NA,good,"NA",NA,NA,NA,NA,NULL,1190,Any addtional parameters were appended as additional columns
# 27. Comments.
1651823146,e50605c6abcf1345994486909dca1218,PennController,5,0,training_trials,NULL,PennController,5,_Trial_,End,1651822979640,B548,Tr,289,0,NA,NA,"За рабочим процессом следили я и Андрей.",NA,good,"NA",NA,NA,NA,NA,NULL
1651823146,e50605c6abcf1345994486909dca1218,PennController,6,0,training_trials,NULL,PennController,6,_Trial_,Start,1651822979642,B548,Tr,290,0,NA,NA,"В финальном матчах выигрывали Вася и Петя.",NA,bad,"NA",NA,NA,NA,NA,NULL
1651823146,e50605c6abcf1345994486909dca1218,PennController,6,0,training_trials,NULL,Controller-AcceptabilityJudgment,AcceptabilityJudgment,В финальном матчах выигрывали Вася и Петя.,NULL,1651822981241,B548,Tr,290,0,NA,NA,"В финальном матчах выигрывали Вася и Петя.",NA,bad,"NA",NA,NA,NA,NA,Any addtional parameters were appended as additional columns
# 27. Whether or not answer was correct (NULL if N/A).
# 28. Time taken to answer..
# 29. Comments.
1651823146,e50605c6abcf1345994486909dca1218,PennController,6,0,training_trials,NULL,Controller-AcceptabilityJudgment,AcceptabilityJudgment,NULL,7,1651822981241,B548,Tr,290,0,NA,NA,"В финальном матчах выигрывали Вася и Петя.",NA,bad,"NA",NA,NA,NA,NA,NULL,579,Any addtional parameters were appended as additional columns
# 27. Comments.
1651823146,e50605c6abcf1345994486909dca1218,PennController,6,0,training_trials,NULL,PennController,6,_Trial_,End,1651822981546,B548,Tr,290,0,NA,NA,"В финальном матчах выигрывали Вася и Петя.",NA,bad,"NA",NA,NA,NA,NA,NULL
1651823146,e50605c6abcf1345994486909dca1218,PennController,7,0,training_trials,NULL,PennController,7,_Trial_,Start,1651822981548,B548,Tr,291,0,NA,NA,"В юридическом колледже преподавали я и Коля.",NA,good,"NA",NA,NA,NA,NA,NULL
1651823146,e50605c6abcf1345994486909dca1218,PennController,7,0,training_trials,NULL,Controller-AcceptabilityJudgment,AcceptabilityJudgment,В юридическом колледже преподавали я и Коля.,NULL,1651822982926,B548,Tr,291,0,NA,NA,"В юридическом колледже преподавали я и Коля.",NA,good,"NA",NA,NA,NA,NA,Any addtional parameters were appended as additional columns
# 27. Whether or not answer was correct (NULL if N/A).
# 28. Time taken to answer..
# 29. Comments.
1651823146,e50605c6abcf1345994486909dca1218,PennController,7,0,training_trials,NULL,Controller-AcceptabilityJudgment,AcceptabilityJudgment,NULL,7,1651822982926,B548,Tr,291,0,NA,NA,"В юридическом колледже преподавали я и Коля.",NA,good,"NA",NA,NA,NA,NA,NULL,370,Any addtional parameters were appended as additional columns
# 27. Comments.
1651823146,e50605c6abcf1345994486909dca1218,PennController,7,0,training_trials,NULL,PennController,7,_Trial_,End,1651822983230,B548,Tr,291,0,NA,NA,"В юридическом колледже преподавали я и Коля.",NA,good,"NA",NA,NA,NA,NA,NULL
# 13. Comments.
1651823146,e50605c6abcf1345994486909dca1218,PennController,3,0,start,NULL,PennController,2,_Trial_,Start,1651822983231,NULL
1651823146,e50605c6abcf1345994486909dca1218,PennController,3,0,start,NULL,Button,continue1,Click,Click,1651822984251,NULL
1651823146,e50605c6abcf1345994486909dca1218,PennController,3,0,start,NULL,PennController,2,_Trial_,End,1651822984252,NULL
# 13. ParticipantID.
# 14. group.
# 15. sentence_id.
# 16. lexicalization.
# 17. conjuncts_order.
# 18. agreement.
# 19. sentence.
# 20. predicate_type.
# 21. filler_type.
# 22. question.
# 23. answer_1.
# 24. answer_2.
# 25. answer_3.
# 26. correct_answer.
# 27. Comments.
1651823146,e50605c6abcf1345994486909dca1218,PennController,24,0,filler1,NULL,PennController,24,_Trial_,Start,1651822984253,B548,F,67,17,NA,NA,"На детском утреннике выступали Володя и Кеша.",NA,good,"NA",NA,NA,NA,NA,NULL
1651823146,e50605c6abcf1345994486909dca1218,PennController,24,0,filler1,NULL,Controller-AcceptabilityJudgment,AcceptabilityJudgment,На детском утреннике выступали Володя и Кеша.,NULL,1651822988550,B548,F,67,17,NA,NA,"На детском утреннике выступали Володя и Кеша.",NA,good,"NA",NA,NA,NA,NA,Any addtional parameters were appended as additional columns
# 27. Whether or not answer was correct (NULL if N/A).
# 28. Time taken to answer..
# 29. Comments.
1651823146,e50605c6abcf1345994486909dca1218,PennController,24,0,filler1,NULL,Controller-AcceptabilityJudgment,AcceptabilityJudgment,NULL,7,1651822988550,B548,F,67,17,NA,NA,"На детском утреннике выступали Володя и Кеша.",NA,good,"NA",NA,NA,NA,NA,NULL,3274,Any addtional parameters were appended as additional columns
# 27. Comments.
1651823146,e50605c6abcf1345994486909dca1218,PennController,24,0,filler1,NULL,PennController,24,_Trial_,End,1651822988855,B548,F,67,17,NA,NA,"На детском утреннике выступали Володя и Кеша.",NA,good,"NA",NA,NA,NA,NA,NULL
1651823146,e50605c6abcf1345994486909dca1218,PennController,11,0,stimul1,NULL,PennController,11,_Trial_,Start,1651822988857,B548,B,15,4,name_pron,sg,"В инфекционной больнице лежал Миша и я.",unacc,NA,"NA",NA,NA,NA,NA,NULL
1651823146,e50605c6abcf1345994486909dca1218,PennController,11,0,stimul1,NULL,Controller-AcceptabilityJudgment,AcceptabilityJudgment,В инфекционной больнице лежал Миша и я.,NULL,1651822997809,B548,B,15,4,name_pron,sg,"В инфекционной больнице лежал Миша и я.",unacc,NA,"NA",NA,NA,NA,NA,Any addtional parameters were appended as additional columns
# 27. Whether or not answer was correct (NULL if N/A).
# 28. Time taken to answer..
# 29. Comments.
1651823146,e50605c6abcf1345994486909dca1218,PennController,11,0,stimul1,NULL,Controller-AcceptabilityJudgment,AcceptabilityJudgment,NULL,7,1651822997809,B548,B,15,4,name_pron,sg,"В инфекционной больнице лежал Миша и я.",unacc,NA,"NA",NA,NA,NA,NA,NULL,7935,Any addtional parameters were appended as additional columns
# 27. Comments.
1651823146,e50605c6abcf1345994486909dca1218,PennController,11,0,stimul1,NULL,PennController,11,_Trial_,End,1651822998114,B548,B,15,4,name_pron,sg,"В инфекционной больнице лежал Миша и я.",unacc,NA,"NA",NA,NA,NA,NA,NULL
1651823146,e50605c6abcf1345994486909dca1218,PennController,25,0,filler1,NULL,PennController,25,_Trial_,Start,1651822998116,B548,F,73,17,NA,NA,"В густом туманах блуждали Андрей и Коля.",NA,bad,"NA",NA,NA,NA,NA,NULL
1651823146,e50605c6abcf1345994486909dca1218,PennController,25,0,filler1,NULL,Controller-AcceptabilityJudgment,AcceptabilityJudgment,В густом туманах блуждали Андрей и Коля.,NULL,1651823001656,B548,F,73,17,NA,NA,"В густом туманах блуждали Андрей и Коля.",NA,bad,"NA",NA,NA,NA,NA,Any addtional parameters were appended as additional columns
# 27. Whether or not answer was correct (NULL if N/A).
# 28. Time taken to answer..
# 29. Comments.
1651823146,e50605c6abcf1345994486909dca1218,PennController,25,0,filler1,NULL,Controller-AcceptabilityJudgment,AcceptabilityJudgment,NULL,7,1651823001656,B548,F,73,17,NA,NA,"В густом туманах блуждали Андрей и Коля.",NA,bad,"NA",NA,NA,NA,NA,NULL,2524,Any addtional parameters were appended as additional columns
# 27. Comments.
1651823146,e50605c6abcf1345994486909dca1218,PennController,25,0,filler1,NULL,PennController,25,_Trial_,End,1651823001961,B548,F,73,17,NA,NA,"В густом туманах блуждали Андрей и Коля.",NA,bad,"NA",NA,NA,NA,NA,NULL
1651823146,e50605c6abcf1345994486909dca1218,PennController,12,0,stimul1,NULL,PennController,12,_Trial_,Start,1651823001963,B548,B,34,9,pron_name,pl,"На дачном участке копали я и Илья.",unerg,NA,"NA",NA,NA,NA,NA,NULL
1651823146,e50605c6abcf1345994486909dca1218,PennController,12,0,stimul1,NULL,Controller-AcceptabilityJudgment,AcceptabilityJudgment,На дачном участке копали я и Илья.,NULL,1651823009033,B548,B,34,9,pron_name,pl,"На дачном участке копали я и Илья.",unerg,NA,"NA",NA,NA,NA,NA,Any addtional parameters were appended as additional columns
# 27. Whether or not answer was correct (NULL if N/A).
# 28. Time taken to answer..
# 29. Comments.
1651823146,e50605c6abcf1345994486909dca1218,PennController,12,0,stimul1,NULL,Controller-AcceptabilityJudgment,AcceptabilityJudgment,NULL,7,1651823009033,B548,B,34,9,pron_name,pl,"На дачном участке копали я и Илья.",unerg,NA,"NA",NA,NA,NA,NA,NULL,6052,Any addtional parameters were appended as additional columns
# 27. Comments.
1651823146,e50605c6abcf1345994486909dca1218,PennController,12,0,stimul1,NULL,PennController,12,_Trial_,End,1651823009336,B548,B,34,9,pron_name,pl,"На дачном участке копали я и Илья.",unerg,NA,"NA",NA,NA,NA,NA,NULL
1651823146,e50605c6abcf1345994486909dca1218,PennController,26,0,filler1,NULL,PennController,26,_Trial_,Start,1651823009338,B548,F,68,17,NA,NA,"На званом вечере присутствовали Кирилл и Федя.",NA,good,"NA",NA,NA,NA,NA,NULL
1651823146,e50605c6abcf1345994486909dca1218,PennController,26,0,filler1,NULL,Controller-AcceptabilityJudgment,AcceptabilityJudgment,На званом вечере присутствовали Кирилл и Федя.,NULL,1651823011351,B548,F,68,17,NA,NA,"На званом вечере присутствовали Кирилл и Федя.",NA,good,"NA",NA,NA,NA,NA,Any addtional parameters were appended as additional columns
# 27. Whether or not answer was correct (NULL if N/A).
# 28. Time taken to answer..
# 29. Comments.
1651823146,e50605c6abcf1345994486909dca1218,PennController,26,0,filler1,NULL,Controller-AcceptabilityJudgment,AcceptabilityJudgment,NULL,7,1651823011351,B548,F,68,17,NA,NA,"На званом вечере присутствовали Кирилл и Федя.",NA,good,"NA",NA,NA,NA,NA,NULL,1005,Any addtional parameters were appended as additional columns
# 27. Comments.
1651823146,e50605c6abcf1345994486909dca1218,PennController,26,0,filler1,NULL,PennController,26,_Trial_,End,1651823011656,B548,F,68,17,NA,NA,"На званом вечере присутствовали Кирилл и Федя.",NA,good,"NA",NA,NA,NA,NA,NULL
1651823146,e50605c6abcf1345994486909dca1218,PennController,15,0,stimul1,NULL,PennController,15,_Trial_,Start,1651823011658,B548,B,47,12,name_pron,sg,"На пишущей машинке печатал Митя и я.",unerg,NA,"NA",NA,NA,NA,NA,NULL
1651823146,e50605c6abcf1345994486909dca1218,PennController,15,0,stimul1,NULL,Controller-AcceptabilityJudgment,AcceptabilityJudgment,На пишущей машинке печатал Митя и я.,NULL,1651823018009,B548,B,47,12,name_pron,sg,"На пишущей машинке печатал Митя и я.",unerg,NA,"NA",NA,NA,NA,NA,Any addtional parameters were appended as additional columns
# 27. Whether or not answer was correct (NULL if N/A).
# 28. Time taken to answer..
# 29. Comments.
1651823146,e50605c6abcf1345994486909dca1218,PennController,15,0,stimul1,NULL,Controller-AcceptabilityJudgment,AcceptabilityJudgment,NULL,7,1651823018009,B548,B,47,12,name_pron,sg,"На пишущей машинке печатал Митя и я.",unerg,NA,"NA",NA,NA,NA,NA,NULL,5335,Any addtional parameters were appended as additional columns
# 27. Comments.
1651823146,e50605c6abcf1345994486909dca1218,PennController,15,0,stimul1,NULL,PennController,15,_Trial_,End,1651823018314,B548,B,47,12,name_pron,sg,"На пишущей машинке печатал Митя и я.",unerg,NA,"NA",NA,NA,NA,NA,NULL
1651823146,e50605c6abcf1345994486909dca1218,PennController,27,0,filler1,NULL,PennController,27,_Trial_,Start,1651823018316,B548,F,74,17,NA,NA,"В правом углах шептали Кеша и Егор.",NA,bad,"NA",NA,NA,NA,NA,NULL
1651823146,e50605c6abcf1345994486909dca1218,PennController,27,0,filler1,NULL,Controller-AcceptabilityJudgment,AcceptabilityJudgment,В правом углах шептали Кеша и Егор.,NULL,1651823020186,B548,F,74,17,NA,NA,"В правом углах шептали Кеша и Егор.",NA,bad,"NA",NA,NA,NA,NA,Any addtional parameters were appended as additional columns
# 27. Whether or not answer was correct (NULL if N/A).
# 28. Time taken to answer..
# 29. Comments.
1651823146,e50605c6abcf1345994486909dca1218,PennController,27,0,filler1,NULL,Controller-AcceptabilityJudgment,AcceptabilityJudgment,NULL,7,1651823020186,B548,F,74,17,NA,NA,"В правом углах шептали Кеша и Егор.",NA,bad,"NA",NA,NA,NA,NA,NULL,857,Any addtional parameters were appended as additional columns
# 27. Comments.
1651823146,e50605c6abcf1345994486909dca1218,PennController,27,0,filler1,NULL,PennController,27,_Trial_,End,1651823020489,B548,F,74,17,NA,NA,"В правом углах шептали Кеша и Егор.",NA,bad,"NA",NA,NA,NA,NA,NULL
1651823146,e50605c6abcf1345994486909dca1218,PennController,14,0,stimul1,NULL,PennController,14,_Trial_,Start,1651823020491,B548,B,44,11,name_pron,pl,"На школьной вечеринке танцевали Данила и я.",unerg,NA,"NA",NA,NA,NA,NA,NULL
1651823146,e50605c6abcf1345994486909dca1218,PennController,14,0,stimul1,NULL,Controller-AcceptabilityJudgment,AcceptabilityJudgment,На школьной вечеринке танцевали Данила и я.,NULL,1651823027831,B548,B,44,11,name_pron,pl,"На школьной вечеринке танцевали Данила и я.",unerg,NA,"NA",NA,NA,NA,NA,Any addtional parameters were appended as additional columns
# 27. Whether or not answer was correct (NULL if N/A).
# 28. Time taken to answer..
# 29. Comments.
1651823146,e50605c6abcf1345994486909dca1218,PennController,14,0,stimul1,NULL,Controller-AcceptabilityJudgment,AcceptabilityJudgment,NULL,7,1651823027831,B548,B,44,11,name_pron,pl,"На школьной вечеринке танцевали Данила и я.",unerg,NA,"NA",NA,NA,NA,NA,NULL,6318,Any addtional parameters were appended as additional columns
# 27. Comments.
1651823146,e50605c6abcf1345994486909dca1218,PennController,14,0,stimul1,NULL,PennController,14,_Trial_,End,1651823028134,B548,B,44,11,name_pron,pl,"На школьной вечеринке танцевали Данила и я.",unerg,NA,"NA",NA,NA,NA,NA,NULL
1651823146,e50605c6abcf1345994486909dca1218,PennController,28,0,filler1,NULL,PennController,28,_Trial_,Start,1651823028135,B548,F,65,17,NA,NA,"В шахматном турнире участвовали Петя и Вася.",NA,good,"Где участвовали Петя и Вася?",в автомобильных гонках,во всероссийском конкурсе,в шахматном турнире,в шахматном турнире,NULL
1651823146,e50605c6abcf1345994486909dca1218,PennController,28,0,filler1,NULL,Controller-AcceptabilityJudgment,AcceptabilityJudgment,В шахматном турнире участвовали Петя и Вася.,NULL,1651823029995,B548,F,65,17,NA,NA,"В шахматном турнире участвовали Петя и Вася.",NA,good,"Где участвовали Петя и Вася?",в автомобильных гонках,во всероссийском конкурсе,в шахматном турнире,в шахматном турнире,Any addtional parameters were appended as additional columns
# 27. Whether or not answer was correct (NULL if N/A).
# 28. Time taken to answer..
# 29. Comments.
1651823146,e50605c6abcf1345994486909dca1218,PennController,28,0,filler1,NULL,Controller-AcceptabilityJudgment,AcceptabilityJudgment,NULL,7,1651823029995,B548,F,65,17,NA,NA,"В шахматном турнире участвовали Петя и Вася.",NA,good,"Где участвовали Петя и Вася?",в автомобильных гонках,во всероссийском конкурсе,в шахматном турнире,в шахматном турнире,NULL,849,Any addtional parameters were appended as additional columns
1651823146,e50605c6abcf1345994486909dca1218,PennController,28,0,filler1,NULL,Controller-Question,Question,Где участвовали Петя и Вася?,в автомобильных гонках,1651823031854,B548,F,65,17,NA,NA,"В шахматном турнире участвовали Петя и Вася.",NA,good,"Где участвовали Петя и Вася?",в автомобильных гонках,во всероссийском конкурсе,в шахматном турнире,в шахматном турнире,0,1551,Any addtional parameters were appended as additional columns
# 27. Comments.
1651823146,e50605c6abcf1345994486909dca1218,PennController,28,0,filler1,NULL,PennController,28,_Trial_,End,1651823031856,B548,F,65,17,NA,NA,"В шахматном турнире участвовали Петя и Вася.",NA,good,"Где участвовали Петя и Вася?",в автомобильных гонках,во всероссийском конкурсе,в шахматном турнире,в шахматном турнире,NULL
1651823146,e50605c6abcf1345994486909dca1218,PennController,9,0,stimul1,NULL,PennController,9,_Trial_,Start,1651823031858,B548,B,5,2,pron_name,sg,"В районном центре жил я и Петя.",unacc,NA,"NA",NA,NA,NA,NA,NULL
1651823146,e50605c6abcf1345994486909dca1218,PennController,9,0,stimul1,NULL,Controller-AcceptabilityJudgment,AcceptabilityJudgment,В районном центре жил я и Петя.,NULL,1651823039809,B548,B,5,2,pron_name,sg,"В районном центре жил я и Петя.",unacc,NA,"NA",NA,NA,NA,NA,Any addtional parameters were appended as additional columns
# 27. Whether or not answer was correct (NULL if N/A).
# 28. Time taken to answer..
# 29. Comments.
1651823146,e50605c6abcf1345994486909dca1218,PennController,9,0,stimul1,NULL,Controller-AcceptabilityJudgment,AcceptabilityJudgment,NULL,7,1651823039809,B548,B,5,2,pron_name,sg,"В районном центре жил я и Петя.",unacc,NA,"NA",NA,NA,NA,NA,NULL,6943,Any addtional parameters were appended as additional columns
# 27. Comments.
1651823146,e50605c6abcf1345994486909dca1218,PennController,9,0,stimul1,NULL,PennController,9,_Trial_,End,1651823040114,B548,B,5,2,pron_name,sg,"В районном центре жил я и Петя.",unacc,NA,"NA",NA,NA,NA,NA,NULL
1651823146,e50605c6abcf1345994486909dca1218,PennController,29,0,filler1,NULL,PennController,29,_Trial_,Start,1651823040116,B548,F,75,17,NA,NA,"В соседнюю страны путешествовали Лёва и Федя.",NA,bad,"NA",NA,NA,NA,NA,NULL
1651823146,e50605c6abcf1345994486909dca1218,PennController,29,0,filler1,NULL,Controller-AcceptabilityJudgment,AcceptabilityJudgment,В соседнюю страны путешествовали Лёва и Федя.,NULL,1651823042113,B548,F,75,17,NA,NA,"В соседнюю страны путешествовали Лёва и Федя.",NA,bad,"NA",NA,NA,NA,NA,Any addtional parameters were appended as additional columns
# 27. Whether or not answer was correct (NULL if N/A).
# 28. Time taken to answer..
# 29. Comments.
1651823146,e50605c6abcf1345994486909dca1218,PennController,29,0,filler1,NULL,Controller-AcceptabilityJudgment,AcceptabilityJudgment,NULL,7,1651823042113,B548,F,75,17,NA,NA,"В соседнюю страны путешествовали Лёва и Федя.",NA,bad,"NA",NA,NA,NA,NA,NULL,987,Any addtional parameters were appended as additional columns
# 27. Comments.
1651823146,e50605c6abcf1345994486909dca1218,PennController,29,0,filler1,NULL,PennController,29,_Trial_,End,1651823042419,B548,F,75,17,NA,NA,"В соседнюю страны путешествовали Лёва и Федя.",NA,bad,"NA",NA,NA,NA,NA,NULL
1651823146,e50605c6abcf1345994486909dca1218,PennController,8,0,stimul1,NULL,PennController,8,_Trial_,Start,1651823042422,B548,B,2,1,pron_name,pl,"В двухместной палатке спали я и Вася.",unacc,NA,"NA",NA,NA,NA,NA,NULL
1651823146,e50605c6abcf1345994486909dca1218,PennController,8,0,stimul1,NULL,Controller-AcceptabilityJudgment,AcceptabilityJudgment,В двухместной палатке спали я и Вася.,NULL,1651823048463,B548,B,2,1,pron_name,pl,"В двухместной палатке спали я и Вася.",unacc,NA,"NA",NA,NA,NA,NA,Any addtional parameters were appended as additional columns
# 27. Whether or not answer was correct (NULL if N/A).
# 28. Time taken to answer..
# 29. Comments.
1651823146,e50605c6abcf1345994486909dca1218,PennController,8,0,stimul1,NULL,Controller-AcceptabilityJudgment,AcceptabilityJudgment,NULL,7,1651823048463,B548,B,2,1,pron_name,pl,"В двухместной палатке спали я и Вася.",unacc,NA,"NA",NA,NA,NA,NA,NULL,5024,Any addtional parameters were appended as additional columns
# 27. Comments.
1651823146,e50605c6abcf1345994486909dca1218,PennController,8,0,stimul1,NULL,PennController,8,_Trial_,End,1651823048768,B548,B,2,1,pron_name,pl,"В двухместной палатке спали я и Вася.",unacc,NA,"NA",NA,NA,NA,NA,NULL
1651823146,e50605c6abcf1345994486909dca1218,PennController,30,0,filler1,NULL,PennController,30,_Trial_,Start,1651823048770,B548,F,69,17,NA,NA,"В волонтёрском центре помогали Гриша и Слава.",NA,good,"NA",NA,NA,NA,NA,NULL
1651823146,e50605c6abcf1345994486909dca1218,PennController,30,0,filler1,NULL,Controller-AcceptabilityJudgment,AcceptabilityJudgment,В волонтёрском центре помогали Гриша и Слава.,NULL,1651823050526,B548,F,69,17,NA,NA,"В волонтёрском центре помогали Гриша и Слава.",NA,good,"NA",NA,NA,NA,NA,Any addtional parameters were appended as additional columns
# 27. Whether or not answer was correct (NULL if N/A).
# 28. Time taken to answer..
# 29. Comments.
1651823146,e50605c6abcf1345994486909dca1218,PennController,30,0,filler1,NULL,Controller-AcceptabilityJudgment,AcceptabilityJudgment,NULL,7,1651823050526,B548,F,69,17,NA,NA,"В волонтёрском центре помогали Гриша и Слава.",NA,good,"NA",NA,NA,NA,NA,NULL,748,Any addtional parameters were appended as additional columns
# 27. Comments.
1651823146,e50605c6abcf1345994486909dca1218,PennController,30,0,filler1,NULL,PennController,30,_Trial_,End,1651823050832,B548,F,69,17,NA,NA,"В волонтёрском центре помогали Гриша и Слава.",NA,good,"NA",NA,NA,NA,NA,NULL
1651823146,e50605c6abcf1345994486909dca1218,PennController,10,0,stimul1,NULL,PennController,10,_Trial_,Start,1651823050834,B548,B,12,3,name_pron,pl,"На городском пляже загорали Ваня и я.",unacc,NA,"NA",NA,NA,NA,NA,NULL
1651823146,e50605c6abcf1345994486909dca1218,PennController,10,0,stimul1,NULL,Controller-AcceptabilityJudgment,AcceptabilityJudgment,На городском пляже загорали Ваня и я.,NULL,1651823056995,B548,B,12,3,name_pron,pl,"На городском пляже загорали Ваня и я.",unacc,NA,"NA",NA,NA,NA,NA,Any addtional parameters were appended as additional columns
# 27. Whether or not answer was correct (NULL if N/A).
# 28. Time taken to answer..
# 29. Comments.
1651823146,e50605c6abcf1345994486909dca1218,PennController,10,0,stimul1,NULL,Controller-AcceptabilityJudgment,AcceptabilityJudgment,NULL,7,1651823056995,B548,B,12,3,name_pron,pl,"На городском пляже загорали Ваня и я.",unacc,NA,"NA",NA,NA,NA,NA,NULL,5141,Any addtional parameters were appended as additional columns
# 27. Comments.
1651823146,e50605c6abcf1345994486909dca1218,PennController,10,0,stimul1,NULL,PennController,10,_Trial_,End,1651823057301,B548,B,12,3,name_pron,pl,"На городском пляже загорали Ваня и я.",unacc,NA,"NA",NA,NA,NA,NA,NULL
1651823146,e50605c6abcf1345994486909dca1218,PennController,31,0,filler1,NULL,PennController,31,_Trial_,Start,1651823057303,B548,F,76,17,NA,NA,"На шумной улицах разговаривали Максим и Гена.",NA,bad,"NA",NA,NA,NA,NA,NULL
1651823146,e50605c6abcf1345994486909dca1218,PennController,31,0,filler1,NULL,Controller-AcceptabilityJudgment,AcceptabilityJudgment,На шумной улицах разговаривали Максим и Гена.,NULL,1651823058899,B548,F,76,17,NA,NA,"На шумной улицах разговаривали Максим и Гена.",NA,bad,"NA",NA,NA,NA,NA,Any addtional parameters were appended as additional columns
# 27. Whether or not answer was correct (NULL if N/A).
# 28. Time taken to answer..
# 29. Comments.
1651823146,e50605c6abcf1345994486909dca1218,PennController,31,0,filler1,NULL,Controller-AcceptabilityJudgment,AcceptabilityJudgment,NULL,7,1651823058899,B548,F,76,17,NA,NA,"На шумной улицах разговаривали Максим и Гена.",NA,bad,"NA",NA,NA,NA,NA,NULL,586,Any addtional parameters were appended as additional columns
# 27. Comments.
1651823146,e50605c6abcf1345994486909dca1218,PennController,31,0,filler1,NULL,PennController,31,_Trial_,End,1651823059205,B548,F,76,17,NA,NA,"На шумной улицах разговаривали Максим и Гена.",NA,bad,"NA",NA,NA,NA,NA,NULL
1651823146,e50605c6abcf1345994486909dca1218,PennController,13,0,stimul1,NULL,PennController,13,_Trial_,Start,1651823059208,B548,B,37,10,pron_name,sg,"На областном конкурсе пел я и Витя.",unerg,NA,"NA",NA,NA,NA,NA,NULL
1651823146,e50605c6abcf1345994486909dca1218,PennController,13,0,stimul1,NULL,Controller-AcceptabilityJudgment,AcceptabilityJudgment,На областном конкурсе пел я и Витя.,NULL,1651823065137,B548,B,37,10,pron_name,sg,"На областном конкурсе пел я и Витя.",unerg,NA,"NA",NA,NA,NA,NA,Any addtional parameters were appended as additional columns
# 27. Whether or not answer was correct (NULL if N/A).
# 28. Time taken to answer..
# 29. Comments.
1651823146,e50605c6abcf1345994486909dca1218,PennController,13,0,stimul1,NULL,Controller-AcceptabilityJudgment,AcceptabilityJudgment,NULL,7,1651823065137,B548,B,37,10,pron_name,sg,"На областном конкурсе пел я и Витя.",unerg,NA,"NA",NA,NA,NA,NA,NULL,4919,Any addtional parameters were appended as additional columns
# 27. Comments.
1651823146,e50605c6abcf1345994486909dca1218,PennController,13,0,stimul1,NULL,PennController,13,_Trial_,End,1651823065443,B548,B,37,10,pron_name,sg,"На областном конкурсе пел я и Витя.",unerg,NA,"NA",NA,NA,NA,NA,NULL
# 13. Comments.
1651823146,e50605c6abcf1345994486909dca1218,PennController,4,0,break,NULL,PennController,3,_Trial_,Start,1651823065445,NULL
1651823146,e50605c6abcf1345994486909dca1218,PennController,4,0,break,NULL,Button,continue2,Click,Click,1651823067165,NULL
1651823146,e50605c6abcf1345994486909dca1218,PennController,4,0,break,NULL,PennController,3,_Trial_,End,1651823067167,NULL
# 13. ParticipantID.
# 14. group.
# 15. sentence_id.
# 16. lexicalization.
# 17. conjuncts_order.
# 18. agreement.
# 19. sentence.
# 20. predicate_type.
# 21. filler_type.
# 22. question.
# 23. answer_1.
# 24. answer_2.
# 25. answer_3.
# 26. correct_answer.
# 27. Comments.
1651823146,e50605c6abcf1345994486909dca1218,PennController,18,0,stimul2,NULL,PennController,18,_Trial_,Start,1651823067168,B548,B,28,7,name_pron,pl,"На футбольных воротах стояли Влад и я.",unacc,NA,"NA",NA,NA,NA,NA,NULL
1651823146,e50605c6abcf1345994486909dca1218,PennController,18,0,stimul2,NULL,Controller-AcceptabilityJudgment,AcceptabilityJudgment,На футбольных воротах стояли Влад и я.,NULL,1651823074331,B548,B,28,7,name_pron,pl,"На футбольных воротах стояли Влад и я.",unacc,NA,"NA",NA,NA,NA,NA,Any addtional parameters were appended as additional columns
# 27. Whether or not answer was correct (NULL if N/A).
# 28. Time taken to answer..
# 29. Comments.
1651823146,e50605c6abcf1345994486909dca1218,PennController,18,0,stimul2,NULL,Controller-AcceptabilityJudgment,AcceptabilityJudgment,NULL,7,1651823074331,B548,B,28,7,name_pron,pl,"На футбольных воротах стояли Влад и я.",unacc,NA,"NA",NA,NA,NA,NA,NULL,6152,Any addtional parameters were appended as additional columns
# 27. Comments.
1651823146,e50605c6abcf1345994486909dca1218,PennController,18,0,stimul2,NULL,PennController,18,_Trial_,End,1651823074634,B548,B,28,7,name_pron,pl,"На футбольных воротах стояли Влад и я.",unacc,NA,"NA",NA,NA,NA,NA,NULL
1651823146,e50605c6abcf1345994486909dca1218,PennController,32,0,filler2,NULL,PennController,32,_Trial_,Start,1651823074636,B548,F,70,17,NA,NA,"В холодную воду прыгали Лёва и Денис.",NA,good,"NA",NA,NA,NA,NA,NULL
1651823146,e50605c6abcf1345994486909dca1218,PennController,32,0,filler2,NULL,Controller-AcceptabilityJudgment,AcceptabilityJudgment,В холодную воду прыгали Лёва и Денис.,NULL,1651823079067,B548,F,70,17,NA,NA,"В холодную воду прыгали Лёва и Денис.",NA,good,"NA",NA,NA,NA,NA,Any addtional parameters were appended as additional columns
# 27. Whether or not answer was correct (NULL if N/A).
# 28. Time taken to answer..
# 29. Comments.
1651823146,e50605c6abcf1345994486909dca1218,PennController,32,0,filler2,NULL,Controller-AcceptabilityJudgment,AcceptabilityJudgment,NULL,7,1651823079067,B548,F,70,17,NA,NA,"В холодную воду прыгали Лёва и Денис.",NA,good,"NA",NA,NA,NA,NA,NULL,3411,Any addtional parameters were appended as additional columns
# 27. Comments.
1651823146,e50605c6abcf1345994486909dca1218,PennController,32,0,filler2,NULL,PennController,32,_Trial_,End,1651823079369,B548,F,70,17,NA,NA,"В холодную воду прыгали Лёва и Денис.",NA,good,"NA",NA,NA,NA,NA,NULL
1651823146,e50605c6abcf1345994486909dca1218,PennController,21,0,stimul2,NULL,PennController,21,_Trial_,Start,1651823079371,B548,B,53,14,pron_name,sg,"На местном стадионе бегал я и Кирилл.",unerg,NA,"NA",NA,NA,NA,NA,NULL
1651823146,e50605c6abcf1345994486909dca1218,PennController,21,0,stimul2,NULL,Controller-AcceptabilityJudgment,AcceptabilityJudgment,На местном стадионе бегал я и Кирилл.,NULL,1651823085614,B548,B,53,14,pron_name,sg,"На местном стадионе бегал я и Кирилл.",unerg,NA,"NA",NA,NA,NA,NA,Any addtional parameters were appended as additional columns
# 27. Whether or not answer was correct (NULL if N/A).
# 28. Time taken to answer..
# 29. Comments.
1651823146,e50605c6abcf1345994486909dca1218,PennController,21,0,stimul2,NULL,Controller-AcceptabilityJudgment,AcceptabilityJudgment,NULL,7,1651823085614,B548,B,53,14,pron_name,sg,"На местном стадионе бегал я и Кирилл.",unerg,NA,"NA",NA,NA,NA,NA,NULL,5214,Any addtional parameters were appended as additional columns
# 27. Comments.
1651823146,e50605c6abcf1345994486909dca1218,PennController,21,0,stimul2,NULL,PennController,21,_Trial_,End,1651823085918,B548,B,53,14,pron_name,sg,"На местном стадионе бегал я и Кирилл.",unerg,NA,"NA",NA,NA,NA,NA,NULL
1651823146,e50605c6abcf1345994486909dca1218,PennController,33,0,filler2,NULL,PennController,33,_Trial_,Start,1651823085920,B548,F,77,17,NA,NA,"В крытый бассейны ныряли Вова и Серёжа.",NA,bad,"NA",NA,NA,NA,NA,NULL
1651823146,e50605c6abcf1345994486909dca1218,PennController,33,0,filler2,NULL,Controller-AcceptabilityJudgment,AcceptabilityJudgment,В крытый бассейны ныряли Вова и Серёжа.,NULL,1651823089200,B548,F,77,17,NA,NA,"В крытый бассейны ныряли Вова и Серёжа.",NA,bad,"NA",NA,NA,NA,NA,Any addtional parameters were appended as additional columns
# 27. Whether or not answer was correct (NULL if N/A).
# 28. Time taken to answer..
# 29. Comments.
1651823146,e50605c6abcf1345994486909dca1218,PennController,33,0,filler2,NULL,Controller-AcceptabilityJudgment,AcceptabilityJudgment,NULL,7,1651823089200,B548,F,77,17,NA,NA,"В крытый бассейны ныряли Вова и Серёжа.",NA,bad,"NA",NA,NA,NA,NA,NULL,2264,Any addtional parameters were appended as additional columns
# 27. Comments.
1651823146,e50605c6abcf1345994486909dca1218,PennController,33,0,filler2,NULL,PennController,33,_Trial_,End,1651823089504,B548,F,77,17,NA,NA,"В крытый бассейны ныряли Вова и Серёжа.",NA,bad,"NA",NA,NA,NA,NA,NULL
1651823146,e50605c6abcf1345994486909dca1218,PennController,23,0,stimul2,NULL,PennController,23,_Trial_,Start,1651823089506,B548,B,63,16,name_pron,sg,"В продуктовый магазин шёл Гриша и я.",unerg,NA,"NA",NA,NA,NA,NA,NULL
1651823146,e50605c6abcf1345994486909dca1218,PennController,23,0,stimul2,NULL,Controller-AcceptabilityJudgment,AcceptabilityJudgment,В продуктовый магазин шёл Гриша и я.,NULL,1651823094125,B548,B,63,16,name_pron,sg,"В продуктовый магазин шёл Гриша и я.",unerg,NA,"NA",NA,NA,NA,NA,Any addtional parameters were appended as additional columns
# 27. Whether or not answer was correct (NULL if N/A).
# 28. Time taken to answer..
# 29. Comments.
1651823146,e50605c6abcf1345994486909dca1218,PennController,23,0,stimul2,NULL,Controller-AcceptabilityJudgment,AcceptabilityJudgment,NULL,7,1651823094125,B548,B,63,16,name_pron,sg,"В продуктовый магазин шёл Гриша и я.",unerg,NA,"NA",NA,NA,NA,NA,NULL,3607,Any addtional parameters were appended as additional columns
# 27. Comments.
1651823146,e50605c6abcf1345994486909dca1218,PennController,23,0,stimul2,NULL,PennController,23,_Trial_,End,1651823094428,B548,B,63,16,name_pron,sg,"В продуктовый магазин шёл Гриша и я.",unerg,NA,"NA",NA,NA,NA,NA,NULL
1651823146,e50605c6abcf1345994486909dca1218,PennController,34,0,filler2,NULL,PennController,34,_Trial_,Start,1651823094429,B548,F,71,17,NA,NA,"В билетной кассе платили Лёша и Вася.",NA,good,"NA",NA,NA,NA,NA,NULL
1651823146,e50605c6abcf1345994486909dca1218,PennController,34,0,filler2,NULL,Controller-AcceptabilityJudgment,AcceptabilityJudgment,В билетной кассе платили Лёша и Вася.,NULL,1651823096175,B548,F,71,17,NA,NA,"В билетной кассе платили Лёша и Вася.",NA,good,"NA",NA,NA,NA,NA,Any addtional parameters were appended as additional columns
# 27. Whether or not answer was correct (NULL if N/A).
# 28. Time taken to answer..
# 29. Comments.
1651823146,e50605c6abcf1345994486909dca1218,PennController,34,0,filler2,NULL,Controller-AcceptabilityJudgment,AcceptabilityJudgment,NULL,7,1651823096175,B548,F,71,17,NA,NA,"В билетной кассе платили Лёша и Вася.",NA,good,"NA",NA,NA,NA,NA,NULL,738,Any addtional parameters were appended as additional columns
# 27. Comments.
1651823146,e50605c6abcf1345994486909dca1218,PennController,34,0,filler2,NULL,PennController,34,_Trial_,End,1651823096480,B548,F,71,17,NA,NA,"В билетной кассе платили Лёша и Вася.",NA,good,"NA",NA,NA,NA,NA,NULL
1651823146,e50605c6abcf1345994486909dca1218,PennController,17,0,stimul2,NULL,PennController,17,_Trial_,Start,1651823096481,B548,B,21,6,pron_name,sg,"В педагогический университет поступал я и Паша.",unacc,NA,"NA",NA,NA,NA,NA,NULL
1651823146,e50605c6abcf1345994486909dca1218,PennController,17,0,stimul2,NULL,Controller-AcceptabilityJudgment,AcceptabilityJudgment,В педагогический университет поступал я и Паша.,NULL,1651823103130,B548,B,21,6,pron_name,sg,"В педагогический университет поступал я и Паша.",unacc,NA,"NA",NA,NA,NA,NA,Any addtional parameters were appended as additional columns
# 27. Whether or not answer was correct (NULL if N/A).
# 28. Time taken to answer..
# 29. Comments.
1651823146,e50605c6abcf1345994486909dca1218,PennController,17,0,stimul2,NULL,Controller-AcceptabilityJudgment,AcceptabilityJudgment,NULL,7,1651823103130,B548,B,21,6,pron_name,sg,"В педагогический университет поступал я и Паша.",unacc,NA,"NA",NA,NA,NA,NA,NULL,5634,Any addtional parameters were appended as additional columns
# 27. Comments.
1651823146,e50605c6abcf1345994486909dca1218,PennController,17,0,stimul2,NULL,PennController,17,_Trial_,End,1651823103435,B548,B,21,6,pron_name,sg,"В педагогический университет поступал я и Паша.",unacc,NA,"NA",NA,NA,NA,NA,NULL
1651823146,e50605c6abcf1345994486909dca1218,PennController,35,0,filler2,NULL,PennController,35,_Trial_,Start,1651823103437,B548,F,78,17,NA,NA,"В грязной прихожих пылесосили Артём и Дима.",NA,bad,"NA",NA,NA,NA,NA,NULL
1651823146,e50605c6abcf1345994486909dca1218,PennController,35,0,filler2,NULL,Controller-AcceptabilityJudgment,AcceptabilityJudgment,В грязной прихожих пылесосили Артём и Дима.,NULL,1651823105047,B548,F,78,17,NA,NA,"В грязной прихожих пылесосили Артём и Дима.",NA,bad,"NA",NA,NA,NA,NA,Any addtional parameters were appended as additional columns
# 27. Whether or not answer was correct (NULL if N/A).
# 28. Time taken to answer..
# 29. Comments.
1651823146,e50605c6abcf1345994486909dca1218,PennController,35,0,filler2,NULL,Controller-AcceptabilityJudgment,AcceptabilityJudgment,NULL,7,1651823105047,B548,F,78,17,NA,NA,"В грязной прихожих пылесосили Артём и Дима.",NA,bad,"NA",NA,NA,NA,NA,NULL,597,Any addtional parameters were appended as additional columns
# 27. Comments.
1651823146,e50605c6abcf1345994486909dca1218,PennController,35,0,filler2,NULL,PennController,35,_Trial_,End,1651823105352,B548,F,78,17,NA,NA,"В грязной прихожих пылесосили Артём и Дима.",NA,bad,"NA",NA,NA,NA,NA,NULL
1651823146,e50605c6abcf1345994486909dca1218,PennController,20,0,stimul2,NULL,PennController,20,_Trial_,Start,1651823105353,B548,B,50,13,pron_name,pl,"В обувной мастерской работали я и Костя.",unerg,NA,"NA",NA,NA,NA,NA,NULL
1651823146,e50605c6abcf1345994486909dca1218,PennController,20,0,stimul2,NULL,Controller-AcceptabilityJudgment,AcceptabilityJudgment,В обувной мастерской работали я и Костя.,NULL,1651823111854,B548,B,50,13,pron_name,pl,"В обувной мастерской работали я и Костя.",unerg,NA,"NA",NA,NA,NA,NA,Any addtional parameters were appended as additional columns
# 27. Whether or not answer was correct (NULL if N/A).
# 28. Time taken to answer..
# 29. Comments.
1651823146,e50605c6abcf1345994486909dca1218,PennController,20,0,stimul2,NULL,Controller-AcceptabilityJudgment,AcceptabilityJudgment,NULL,7,1651823111854,B548,B,50,13,pron_name,pl,"В обувной мастерской работали я и Костя.",unerg,NA,"NA",NA,NA,NA,NA,NULL,5491,Any addtional parameters were appended as additional columns
# 27. Comments.
1651823146,e50605c6abcf1345994486909dca1218,PennController,20,0,stimul2,NULL,PennController,20,_Trial_,End,1651823112159,B548,B,50,13,pron_name,pl,"В обувной мастерской работали я и Костя.",unerg,NA,"NA",NA,NA,NA,NA,NULL
1651823146,e50605c6abcf1345994486909dca1218,PennController,36,0,filler2,NULL,PennController,36,_Trial_,Start,1651823112160,B548,F,66,17,NA,NA,"В мужской раздевалке болтали Ваня и Коля.",NA,good,"Где болтали Ваня и Коля?",в мужской раздевалке,в пустом классе,в шумном переулке,в мужской раздевалке,NULL
1651823146,e50605c6abcf1345994486909dca1218,PennController,36,0,filler2,NULL,Controller-AcceptabilityJudgment,AcceptabilityJudgment,В мужской раздевалке болтали Ваня и Коля.,NULL,1651823115440,B548,F,66,17,NA,NA,"В мужской раздевалке болтали Ваня и Коля.",NA,good,"Где болтали Ваня и Коля?",в мужской раздевалке,в пустом классе,в шумном переулке,в мужской раздевалке,Any addtional parameters were appended as additional columns
# 27. Whether or not answer was correct (NULL if N/A).
# 28. Time taken to answer..
# 29. Comments.
1651823146,e50605c6abcf1345994486909dca1218,PennController,36,0,filler2,NULL,Controller-AcceptabilityJudgment,AcceptabilityJudgment,NULL,7,1651823115440,B548,F,66,17,NA,NA,"В мужской раздевалке болтали Ваня и Коля.",NA,good,"Где болтали Ваня и Коля?",в мужской раздевалке,в пустом классе,в шумном переулке,в мужской раздевалке,NULL,2254,Any addtional parameters were appended as additional columns
1651823146,e50605c6abcf1345994486909dca1218,PennController,36,0,filler2,NULL,Controller-Question,Question,Где болтали Ваня и Коля?,в мужской раздевалке,1651823117062,B548,F,66,17,NA,NA,"В мужской раздевалке болтали Ваня и Коля.",NA,good,"Где болтали Ваня и Коля?",в мужской раздевалке,в пустом классе,в шумном переулке,в мужской раздевалке,1,1314,Any addtional parameters were appended as additional columns
# 27. Comments.
1651823146,e50605c6abcf1345994486909dca1218,PennController,36,0,filler2,NULL,PennController,36,_Trial_,End,1651823117064,B548,F,66,17,NA,NA,"В мужской раздевалке болтали Ваня и Коля.",NA,good,"Где болтали Ваня и Коля?",в мужской раздевалке,в пустом классе,в шумном переулке,в мужской раздевалке,NULL
1651823146,e50605c6abcf1345994486909dca1218,PennController,19,0,stimul2,NULL,PennController,19,_Trial_,Start,1651823117069,B548,B,31,8,name_pron,sg,"На вечерние занятия приходил Володя и я.",unacc,NA,"NA",NA,NA,NA,NA,NULL
1651823146,e50605c6abcf1345994486909dca1218,PennController,19,0,stimul2,NULL,Controller-AcceptabilityJudgment,AcceptabilityJudgment,На вечерние занятия приходил Володя и я.,NULL,1651823124396,B548,B,31,8,name_pron,sg,"На вечерние занятия приходил Володя и я.",unacc,NA,"NA",NA,NA,NA,NA,Any addtional parameters were appended as additional columns
# 27. Whether or not answer was correct (NULL if N/A).
# 28. Time taken to answer..
# 29. Comments.
1651823146,e50605c6abcf1345994486909dca1218,PennController,19,0,stimul2,NULL,Controller-AcceptabilityJudgment,AcceptabilityJudgment,NULL,7,1651823124396,B548,B,31,8,name_pron,sg,"На вечерние занятия приходил Володя и я.",unacc,NA,"NA",NA,NA,NA,NA,NULL,6317,Any addtional parameters were appended as additional columns
# 27. Comments.
1651823146,e50605c6abcf1345994486909dca1218,PennController,19,0,stimul2,NULL,PennController,19,_Trial_,End,1651823124702,B548,B,31,8,name_pron,sg,"На вечерние занятия приходил Володя и я.",unacc,NA,"NA",NA,NA,NA,NA,NULL
1651823146,e50605c6abcf1345994486909dca1218,PennController,37,0,filler2,NULL,PennController,37,_Trial_,Start,1651823124703,B548,F,79,17,NA,NA,"В последний вагоны впрыгивали Илья и Кирилл.",NA,bad,"NA",NA,NA,NA,NA,NULL
1651823146,e50605c6abcf1345994486909dca1218,PennController,37,0,filler2,NULL,Controller-AcceptabilityJudgment,AcceptabilityJudgment,В последний вагоны впрыгивали Илья и Кирилл.,NULL,1651823127074,B548,F,79,17,NA,NA,"В последний вагоны впрыгивали Илья и Кирилл.",NA,bad,"NA",NA,NA,NA,NA,Any addtional parameters were appended as additional columns
# 27. Whether or not answer was correct (NULL if N/A).
# 28. Time taken to answer..
# 29. Comments.
1651823146,e50605c6abcf1345994486909dca1218,PennController,37,0,filler2,NULL,Controller-AcceptabilityJudgment,AcceptabilityJudgment,NULL,7,1651823127074,B548,F,79,17,NA,NA,"В последний вагоны впрыгивали Илья и Кирилл.",NA,bad,"NA",NA,NA,NA,NA,NULL,1359,Any addtional parameters were appended as additional columns
# 27. Comments.
1651823146,e50605c6abcf1345994486909dca1218,PennController,37,0,filler2,NULL,PennController,37,_Trial_,End,1651823127380,B548,F,79,17,NA,NA,"В последний вагоны впрыгивали Илья и Кирилл.",NA,bad,"NA",NA,NA,NA,NA,NULL
1651823146,e50605c6abcf1345994486909dca1218,PennController,16,0,stimul2,NULL,PennController,16,_Trial_,Start,1651823127382,B548,B,18,5,pron_name,pl,"На садовой скамейке сидели я и Никита.",unacc,NA,"NA",NA,NA,NA,NA,NULL
1651823146,e50605c6abcf1345994486909dca1218,PennController,16,0,stimul2,NULL,Controller-AcceptabilityJudgment,AcceptabilityJudgment,На садовой скамейке сидели я и Никита.,NULL,1651823134028,B548,B,18,5,pron_name,pl,"На садовой скамейке сидели я и Никита.",unacc,NA,"NA",NA,NA,NA,NA,Any addtional parameters were appended as additional columns
# 27. Whether or not answer was correct (NULL if N/A).
# 28. Time taken to answer..
# 29. Comments.
1651823146,e50605c6abcf1345994486909dca1218,PennController,16,0,stimul2,NULL,Controller-AcceptabilityJudgment,AcceptabilityJudgment,NULL,7,1651823134028,B548,B,18,5,pron_name,pl,"На садовой скамейке сидели я и Никита.",unacc,NA,"NA",NA,NA,NA,NA,NULL,5632,Any addtional parameters were appended as additional columns
# 27. Comments.
1651823146,e50605c6abcf1345994486909dca1218,PennController,16,0,stimul2,NULL,PennController,16,_Trial_,End,1651823134334,B548,B,18,5,pron_name,pl,"На садовой скамейке сидели я и Никита.",unacc,NA,"NA",NA,NA,NA,NA,NULL
1651823146,e50605c6abcf1345994486909dca1218,PennController,38,0,filler2,NULL,PennController,38,_Trial_,Start,1651823134336,B548,F,72,17,NA,NA,"На красную кнопку нажимали Никита и Слава.",NA,good,"NA",NA,NA,NA,NA,NULL
1651823146,e50605c6abcf1345994486909dca1218,PennController,38,0,filler2,NULL,Controller-AcceptabilityJudgment,AcceptabilityJudgment,На красную кнопку нажимали Никита и Слава.,NULL,1651823136101,B548,F,72,17,NA,NA,"На красную кнопку нажимали Никита и Слава.",NA,good,"NA",NA,NA,NA,NA,Any addtional parameters were appended as additional columns
# 27. Whether or not answer was correct (NULL if N/A).
# 28. Time taken to answer..
# 29. Comments.
1651823146,e50605c6abcf1345994486909dca1218,PennController,38,0,filler2,NULL,Controller-AcceptabilityJudgment,AcceptabilityJudgment,NULL,7,1651823136101,B548,F,72,17,NA,NA,"На красную кнопку нажимали Никита и Слава.",NA,good,"NA",NA,NA,NA,NA,NULL,748,Any addtional parameters were appended as additional columns
# 27. Comments.
1651823146,e50605c6abcf1345994486909dca1218,PennController,38,0,filler2,NULL,PennController,38,_Trial_,End,1651823136406,B548,F,72,17,NA,NA,"На красную кнопку нажимали Никита и Слава.",NA,good,"NA",NA,NA,NA,NA,NULL
1651823146,e50605c6abcf1345994486909dca1218,PennController,22,0,stimul2,NULL,PennController,22,_Trial_,Start,1651823136408,B548,B,60,15,name_pron,pl,"На детской площадке играли Андрей и я.",unerg,NA,"NA",NA,NA,NA,NA,NULL
1651823146,e50605c6abcf1345994486909dca1218,PennController,22,0,stimul2,NULL,Controller-AcceptabilityJudgment,AcceptabilityJudgment,На детской площадке играли Андрей и я.,NULL,1651823141913,B548,B,60,15,name_pron,pl,"На детской площадке играли Андрей и я.",unerg,NA,"NA",NA,NA,NA,NA,Any addtional parameters were appended as additional columns
# 27. Whether or not answer was correct (NULL if N/A).
# 28. Time taken to answer..
# 29. Comments.
1651823146,e50605c6abcf1345994486909dca1218,PennController,22,0,stimul2,NULL,Controller-AcceptabilityJudgment,AcceptabilityJudgment,NULL,7,1651823141913,B548,B,60,15,name_pron,pl,"На детской площадке играли Андрей и я.",unerg,NA,"NA",NA,NA,NA,NA,NULL,4496,Any addtional parameters were appended as additional columns
# 27. Comments.
1651823146,e50605c6abcf1345994486909dca1218,PennController,22,0,stimul2,NULL,PennController,22,_Trial_,End,1651823142219,B548,B,60,15,name_pron,pl,"На детской площадке играли Андрей и я.",unerg,NA,"NA",NA,NA,NA,NA,NULL
1651823146,e50605c6abcf1345994486909dca1218,PennController,39,0,filler2,NULL,PennController,39,_Trial_,Start,1651823142222,B548,F,80,17,NA,NA,"До лесной опушек добрели Федя и Митя.",NA,bad,"NA",NA,NA,NA,NA,NULL
1651823146,e50605c6abcf1345994486909dca1218,PennController,39,0,filler2,NULL,Controller-AcceptabilityJudgment,AcceptabilityJudgment,До лесной опушек добрели Федя и Митя.,NULL,1651823145021,B548,F,80,17,NA,NA,"До лесной опушек добрели Федя и Митя.",NA,bad,"NA",NA,NA,NA,NA,Any addtional parameters were appended as additional columns
# 27. Whether or not answer was correct (NULL if N/A).
# 28. Time taken to answer..
# 29. Comments.
1651823146,e50605c6abcf1345994486909dca1218,PennController,39,0,filler2,NULL,Controller-AcceptabilityJudgment,AcceptabilityJudgment,NULL,7,1651823145021,B548,F,80,17,NA,NA,"До лесной опушек добрели Федя и Митя.",NA,bad,"NA",NA,NA,NA,NA,NULL,1787,Any addtional parameters were appended as additional columns
# 27. Comments.
1651823146,e50605c6abcf1345994486909dca1218,PennController,39,0,filler2,NULL,PennController,39,_Trial_,End,1651823145326,B548,F,80,17,NA,NA,"До лесной опушек добрели Федя и Митя.",NA,bad,"NA",NA,NA,NA,NA,NULL
#
# Results on Fri, 06 May 2022 08:08:08 GMT
# USER AGENT: Mozilla/5.0 (Windows NT 10.0; Win64; x64) AppleWebKit/537.36 (KHTML, like Gecko) Chrome/101.0.4951.41 Safari/537.36 Edg/101.0.1210.32
# Design number was non-random = 0
#
# Columns below this comment are as follows:
# 1. Results reception time.
# 2. MD5 hash of participant's IP address.
# 3. Controller name.
# 4. Order number of item.
# 5. Inner element number.
# 6. Label.
# 7. Latin Square Group.
# 8. PennElementType.
# 9. PennElementName.
# 10. Parameter.
# 11. Value.
# 12. EventTime.
# 13. ParticipantID.
# 14. Comments.
1651824488,e50605c6abcf1345994486909dca1218,PennController,1,0,anketa,NULL,PennController,0,_Trial_,Start,1651824394955,T6821,NULL
1651824488,e50605c6abcf1345994486909dca1218,PennController,1,0,anketa,NULL,TextInput,id_response,Final,проба,1651824406782,T6821,NULL
1651824488,e50605c6abcf1345994486909dca1218,PennController,1,0,anketa,NULL,TextInput,id_response,First,,1651824396817,T6821,п
1651824488,e50605c6abcf1345994486909dca1218,PennController,1,0,anketa,NULL,TextInput,age_response,Final,2,1651824406783,T6821,NULL
1651824488,e50605c6abcf1345994486909dca1218,PennController,1,0,anketa,NULL,TextInput,age_response,First,,1651824398352,T6821,2
1651824488,e50605c6abcf1345994486909dca1218,PennController,1,0,anketa,NULL,TextInput,gorod1_response,Final,ыв,1651824406783,T6821,NULL
1651824488,e50605c6abcf1345994486909dca1218,PennController,1,0,anketa,NULL,TextInput,gorod1_response,First,,1651824401665,T6821,ы
1651824488,e50605c6abcf1345994486909dca1218,PennController,1,0,anketa,NULL,TextInput,gorod2_response,Final,,1651824406783,T6821,NULL
1651824488,e50605c6abcf1345994486909dca1218,PennController,1,0,anketa,NULL,TextInput,lang_response,Final,,1651824406783,T6821,NULL
1651824488,e50605c6abcf1345994486909dca1218,PennController,1,0,anketa,NULL,Scale,gender_response,Choice,женский,1651824399182,T6821,NULL
1651824488,e50605c6abcf1345994486909dca1218,PennController,1,0,anketa,NULL,Scale,lang_edu_response,Choice,нет,1651824404532,T6821,NULL
1651824488,e50605c6abcf1345994486909dca1218,PennController,1,0,anketa,NULL,PennController,0,_Trial_,End,1651824406784,T6821,NULL
# 13. Comments.
1651824488,e50605c6abcf1345994486909dca1218,PennController,2,0,instruction,NULL,PennController,1,_Trial_,Start,1651824406789,NULL
1651824488,e50605c6abcf1345994486909dca1218,PennController,2,0,instruction,NULL,Button,start,Click,Click,1651824407860,NULL
1651824488,e50605c6abcf1345994486909dca1218,PennController,2,0,instruction,NULL,PennController,1,_Trial_,End,1651824407862,NULL
# 13. ParticipantID.
# 14. group.
# 15. sentence_id.
# 16. lexicalization.
# 17. conjuncts_order.
# 18. agreement.
# 19. sentence.
# 20. predicate_type.
# 21. filler_type.
# 22. question.
# 23. answer_1.
# 24. answer_2.
# 25. answer_3.
# 26. correct_answer.
# 27. Comments.
1651824488,e50605c6abcf1345994486909dca1218,PennController,5,0,training_trials,NULL,PennController,5,_Trial_,Start,1651824407864,T6821,Tr,289,0,NA,NA,"За рабочим процессом следили я и Андрей.",NA,good,"NA",NA,NA,NA,NA,NULL
1651824488,e50605c6abcf1345994486909dca1218,PennController,5,0,training_trials,NULL,Controller-AcceptabilityJudgment,AcceptabilityJudgment,За рабочим процессом следили я и Андрей.,NULL,1651824409764,T6821,Tr,289,0,NA,NA,"За рабочим процессом следили я и Андрей.",NA,good,"NA",NA,NA,NA,NA,Any addtional parameters were appended as additional columns
# 27. Whether or not answer was correct (NULL if N/A).
# 28. Time taken to answer..
# 29. Comments.
1651824488,e50605c6abcf1345994486909dca1218,PennController,5,0,training_trials,NULL,Controller-AcceptabilityJudgment,AcceptabilityJudgment,NULL,7,1651824409764,T6821,Tr,289,0,NA,NA,"За рабочим процессом следили я и Андрей.",NA,good,"NA",NA,NA,NA,NA,NULL,888,Any addtional parameters were appended as additional columns
# 27. Comments.
1651824488,e50605c6abcf1345994486909dca1218,PennController,5,0,training_trials,NULL,PennController,5,_Trial_,End,1651824410071,T6821,Tr,289,0,NA,NA,"За рабочим процессом следили я и Андрей.",NA,good,"NA",NA,NA,NA,NA,NULL
1651824488,e50605c6abcf1345994486909dca1218,PennController,6,0,training_trials,NULL,PennController,6,_Trial_,Start,1651824410073,T6821,Tr,290,0,NA,NA,"В финальном матчах выигрывали Вася и Петя.",NA,bad,"NA",NA,NA,NA,NA,NULL
1651824488,e50605c6abcf1345994486909dca1218,PennController,6,0,training_trials,NULL,Controller-AcceptabilityJudgment,AcceptabilityJudgment,В финальном матчах выигрывали Вася и Петя.,NULL,1651824411581,T6821,Tr,290,0,NA,NA,"В финальном матчах выигрывали Вася и Петя.",NA,bad,"NA",NA,NA,NA,NA,Any addtional parameters were appended as additional columns
# 27. Whether or not answer was correct (NULL if N/A).
# 28. Time taken to answer..
# 29. Comments.
1651824488,e50605c6abcf1345994486909dca1218,PennController,6,0,training_trials,NULL,Controller-AcceptabilityJudgment,AcceptabilityJudgment,NULL,7,1651824411581,T6821,Tr,290,0,NA,NA,"В финальном матчах выигрывали Вася и Петя.",NA,bad,"NA",NA,NA,NA,NA,NULL,494,Any addtional parameters were appended as additional columns
# 27. Comments.
1651824488,e50605c6abcf1345994486909dca1218,PennController,6,0,training_trials,NULL,PennController,6,_Trial_,End,1651824411886,T6821,Tr,290,0,NA,NA,"В финальном матчах выигрывали Вася и Петя.",NA,bad,"NA",NA,NA,NA,NA,NULL
1651824488,e50605c6abcf1345994486909dca1218,PennController,7,0,training_trials,NULL,PennController,7,_Trial_,Start,1651824411889,T6821,Tr,291,0,NA,NA,"В юридическом колледже преподавали я и Коля.",NA,good,"NA",NA,NA,NA,NA,NULL
1651824488,e50605c6abcf1345994486909dca1218,PennController,7,0,training_trials,NULL,Controller-AcceptabilityJudgment,AcceptabilityJudgment,В юридическом колледже преподавали я и Коля.,NULL,1651824413619,T6821,Tr,291,0,NA,NA,"В юридическом колледже преподавали я и Коля.",NA,good,"NA",NA,NA,NA,NA,Any addtional parameters were appended as additional columns
# 27. Whether or not answer was correct (NULL if N/A).
# 28. Time taken to answer..
# 29. Comments.
1651824488,e50605c6abcf1345994486909dca1218,PennController,7,0,training_trials,NULL,Controller-AcceptabilityJudgment,AcceptabilityJudgment,NULL,7,1651824413619,T6821,Tr,291,0,NA,NA,"В юридическом колледже преподавали я и Коля.",NA,good,"NA",NA,NA,NA,NA,NULL,710,Any addtional parameters were appended as additional columns
# 27. Comments.
1651824488,e50605c6abcf1345994486909dca1218,PennController,7,0,training_trials,NULL,PennController,7,_Trial_,End,1651824413923,T6821,Tr,291,0,NA,NA,"В юридическом колледже преподавали я и Коля.",NA,good,"NA",NA,NA,NA,NA,NULL
# 13. Comments.
1651824488,e50605c6abcf1345994486909dca1218,PennController,3,0,start,NULL,PennController,2,_Trial_,Start,1651824413925,NULL
1651824488,e50605c6abcf1345994486909dca1218,PennController,3,0,start,NULL,Button,continue1,Click,Click,1651824415079,NULL
1651824488,e50605c6abcf1345994486909dca1218,PennController,3,0,start,NULL,PennController,2,_Trial_,End,1651824415081,NULL
# 13. ParticipantID.
# 14. group.
# 15. sentence_id.
# 16. lexicalization.
# 17. conjuncts_order.
# 18. agreement.
# 19. sentence.
# 20. predicate_type.
# 21. filler_type.
# 22. question.
# 23. answer_1.
# 24. answer_2.
# 25. answer_3.
# 26. correct_answer.
# 27. Comments.
1651824488,e50605c6abcf1345994486909dca1218,PennController,15,0,stimul1,NULL,PennController,15,_Trial_,Start,1651824415082,T6821,A,46,12,pron_name,pl,"На пишущей машинке печатали я и Митя.",unerg,NA,"NA",NA,NA,NA,NA,NULL
1651824488,e50605c6abcf1345994486909dca1218,PennController,15,0,stimul1,NULL,Controller-AcceptabilityJudgment,AcceptabilityJudgment,На пишущей машинке печатали я и Митя.,NULL,1651824419442,T6821,A,46,12,pron_name,pl,"На пишущей машинке печатали я и Митя.",unerg,NA,"NA",NA,NA,NA,NA,Any addtional parameters were appended as additional columns
# 27. Whether or not answer was correct (NULL if N/A).
# 28. Time taken to answer..
# 29. Comments.
1651824488,e50605c6abcf1345994486909dca1218,PennController,15,0,stimul1,NULL,Controller-AcceptabilityJudgment,AcceptabilityJudgment,NULL,7,1651824419442,T6821,A,46,12,pron_name,pl,"На пишущей машинке печатали я и Митя.",unerg,NA,"NA",NA,NA,NA,NA,NULL,3351,Any addtional parameters were appended as additional columns
# 27. Comments.
1651824488,e50605c6abcf1345994486909dca1218,PennController,15,0,stimul1,NULL,PennController,15,_Trial_,End,1651824419749,T6821,A,46,12,pron_name,pl,"На пишущей машинке печатали я и Митя.",unerg,NA,"NA",NA,NA,NA,NA,NULL
1651824488,e50605c6abcf1345994486909dca1218,PennController,24,0,filler1,NULL,PennController,24,_Trial_,Start,1651824419752,T6821,F,67,17,NA,NA,"На детском утреннике выступали Володя и Кеша.",NA,good,"NA",NA,NA,NA,NA,NULL
1651824488,e50605c6abcf1345994486909dca1218,PennController,24,0,filler1,NULL,Controller-AcceptabilityJudgment,AcceptabilityJudgment,На детском утреннике выступали Володя и Кеша.,NULL,1651824422700,T6821,F,67,17,NA,NA,"На детском утреннике выступали Володя и Кеша.",NA,good,"NA",NA,NA,NA,NA,Any addtional parameters were appended as additional columns
# 27. Whether or not answer was correct (NULL if N/A).
# 28. Time taken to answer..
# 29. Comments.
1651824488,e50605c6abcf1345994486909dca1218,PennController,24,0,filler1,NULL,Controller-AcceptabilityJudgment,AcceptabilityJudgment,NULL,7,1651824422700,T6821,F,67,17,NA,NA,"На детском утреннике выступали Володя и Кеша.",NA,good,"NA",NA,NA,NA,NA,NULL,1934,Any addtional parameters were appended as additional columns
# 27. Comments.
1651824488,e50605c6abcf1345994486909dca1218,PennController,24,0,filler1,NULL,PennController,24,_Trial_,End,1651824423005,T6821,F,67,17,NA,NA,"На детском утреннике выступали Володя и Кеша.",NA,good,"NA",NA,NA,NA,NA,NULL
1651824488,e50605c6abcf1345994486909dca1218,PennController,11,0,stimul1,NULL,PennController,11,_Trial_,Start,1651824423006,T6821,A,14,4,pron_name,pl,"В инфекционной больнице лежали я и Миша.",unacc,NA,"NA",NA,NA,NA,NA,NULL
1651824488,e50605c6abcf1345994486909dca1218,PennController,11,0,stimul1,NULL,Controller-AcceptabilityJudgment,AcceptabilityJudgment,В инфекционной больнице лежали я и Миша.,NULL,1651824425406,T6821,A,14,4,pron_name,pl,"В инфекционной больнице лежали я и Миша.",unacc,NA,"NA",NA,NA,NA,NA,Any addtional parameters were appended as additional columns
# 27. Whether or not answer was correct (NULL if N/A).
# 28. Time taken to answer..
# 29. Comments.
1651824488,e50605c6abcf1345994486909dca1218,PennController,11,0,stimul1,NULL,Controller-AcceptabilityJudgment,AcceptabilityJudgment,NULL,7,1651824425406,T6821,A,14,4,pron_name,pl,"В инфекционной больнице лежали я и Миша.",unacc,NA,"NA",NA,NA,NA,NA,NULL,1388,Any addtional parameters were appended as additional columns
# 27. Comments.
1651824488,e50605c6abcf1345994486909dca1218,PennController,11,0,stimul1,NULL,PennController,11,_Trial_,End,1651824425711,T6821,A,14,4,pron_name,pl,"В инфекционной больнице лежали я и Миша.",unacc,NA,"NA",NA,NA,NA,NA,NULL
1651824488,e50605c6abcf1345994486909dca1218,PennController,25,0,filler1,NULL,PennController,25,_Trial_,Start,1651824425713,T6821,F,73,17,NA,NA,"В густом туманах блуждали Андрей и Коля.",NA,bad,"NA",NA,NA,NA,NA,NULL
1651824488,e50605c6abcf1345994486909dca1218,PennController,25,0,filler1,NULL,Controller-AcceptabilityJudgment,AcceptabilityJudgment,В густом туманах блуждали Андрей и Коля.,NULL,1651824427084,T6821,F,73,17,NA,NA,"В густом туманах блуждали Андрей и Коля.",NA,bad,"NA",NA,NA,NA,NA,Any addtional parameters were appended as additional columns
# 27. Whether or not answer was correct (NULL if N/A).
# 28. Time taken to answer..
# 29. Comments.
1651824488,e50605c6abcf1345994486909dca1218,PennController,25,0,filler1,NULL,Controller-AcceptabilityJudgment,AcceptabilityJudgment,NULL,7,1651824427084,T6821,F,73,17,NA,NA,"В густом туманах блуждали Андрей и Коля.",NA,bad,"NA",NA,NA,NA,NA,NULL,358,Any addtional parameters were appended as additional columns
# 27. Comments.
1651824488,e50605c6abcf1345994486909dca1218,PennController,25,0,filler1,NULL,PennController,25,_Trial_,End,1651824427390,T6821,F,73,17,NA,NA,"В густом туманах блуждали Андрей и Коля.",NA,bad,"NA",NA,NA,NA,NA,NULL
1651824488,e50605c6abcf1345994486909dca1218,PennController,13,0,stimul1,NULL,PennController,13,_Trial_,Start,1651824427393,T6821,A,40,10,name_pron,pl,"На областном конкурсе пели Витя и я.",unerg,NA,"NA",NA,NA,NA,NA,NULL
1651824488,e50605c6abcf1345994486909dca1218,PennController,13,0,stimul1,NULL,Controller-AcceptabilityJudgment,AcceptabilityJudgment,На областном конкурсе пели Витя и я.,NULL,1651824429417,T6821,A,40,10,name_pron,pl,"На областном конкурсе пели Витя и я.",unerg,NA,"NA",NA,NA,NA,NA,Any addtional parameters were appended as additional columns
# 27. Whether or not answer was correct (NULL if N/A).
# 28. Time taken to answer..
# 29. Comments.
1651824488,e50605c6abcf1345994486909dca1218,PennController,13,0,stimul1,NULL,Controller-AcceptabilityJudgment,AcceptabilityJudgment,NULL,7,1651824429417,T6821,A,40,10,name_pron,pl,"На областном конкурсе пели Витя и я.",unerg,NA,"NA",NA,NA,NA,NA,NULL,1011,Any addtional parameters were appended as additional columns
# 27. Comments.
1651824488,e50605c6abcf1345994486909dca1218,PennController,13,0,stimul1,NULL,PennController,13,_Trial_,End,1651824429722,T6821,A,40,10,name_pron,pl,"На областном конкурсе пели Витя и я.",unerg,NA,"NA",NA,NA,NA,NA,NULL
1651824488,e50605c6abcf1345994486909dca1218,PennController,26,0,filler1,NULL,PennController,26,_Trial_,Start,1651824429724,T6821,F,68,17,NA,NA,"На званом вечере присутствовали Кирилл и Федя.",NA,good,"NA",NA,NA,NA,NA,NULL
1651824488,e50605c6abcf1345994486909dca1218,PennController,26,0,filler1,NULL,Controller-AcceptabilityJudgment,AcceptabilityJudgment,На званом вечере присутствовали Кирилл и Федя.,NULL,1651824431815,T6821,F,68,17,NA,NA,"На званом вечере присутствовали Кирилл и Федя.",NA,good,"NA",NA,NA,NA,NA,Any addtional parameters were appended as additional columns
# 27. Whether or not answer was correct (NULL if N/A).
# 28. Time taken to answer..
# 29. Comments.
1651824488,e50605c6abcf1345994486909dca1218,PennController,26,0,filler1,NULL,Controller-AcceptabilityJudgment,AcceptabilityJudgment,NULL,7,1651824431815,T6821,F,68,17,NA,NA,"На званом вечере присутствовали Кирилл и Федя.",NA,good,"NA",NA,NA,NA,NA,NULL,1072,Any addtional parameters were appended as additional columns
# 27. Comments.
1651824488,e50605c6abcf1345994486909dca1218,PennController,26,0,filler1,NULL,PennController,26,_Trial_,End,1651824432120,T6821,F,68,17,NA,NA,"На званом вечере присутствовали Кирилл и Федя.",NA,good,"NA",NA,NA,NA,NA,NULL
1651824488,e50605c6abcf1345994486909dca1218,PennController,8,0,stimul1,NULL,PennController,8,_Trial_,Start,1651824432121,T6821,A,1,1,pron_name,sg,"В двухместной палатке спал я и Вася.",unacc,NA,"NA",NA,NA,NA,NA,NULL
1651824488,e50605c6abcf1345994486909dca1218,PennController,8,0,stimul1,NULL,Controller-AcceptabilityJudgment,AcceptabilityJudgment,В двухместной палатке спал я и Вася.,NULL,1651824434439,T6821,A,1,1,pron_name,sg,"В двухместной палатке спал я и Вася.",unacc,NA,"NA",NA,NA,NA,NA,Any addtional parameters were appended as additional columns
# 27. Whether or not answer was correct (NULL if N/A).
# 28. Time taken to answer..
# 29. Comments.
1651824488,e50605c6abcf1345994486909dca1218,PennController,8,0,stimul1,NULL,Controller-AcceptabilityJudgment,AcceptabilityJudgment,NULL,7,1651824434439,T6821,A,1,1,pron_name,sg,"В двухместной палатке спал я и Вася.",unacc,NA,"NA",NA,NA,NA,NA,NULL,1310,Any addtional parameters were appended as additional columns
# 27. Comments.
1651824488,e50605c6abcf1345994486909dca1218,PennController,8,0,stimul1,NULL,PennController,8,_Trial_,End,1651824434743,T6821,A,1,1,pron_name,sg,"В двухместной палатке спал я и Вася.",unacc,NA,"NA",NA,NA,NA,NA,NULL
1651824488,e50605c6abcf1345994486909dca1218,PennController,27,0,filler1,NULL,PennController,27,_Trial_,Start,1651824434745,T6821,F,74,17,NA,NA,"В правом углах шептали Кеша и Егор.",NA,bad,"NA",NA,NA,NA,NA,NULL
1651824488,e50605c6abcf1345994486909dca1218,PennController,27,0,filler1,NULL,Controller-AcceptabilityJudgment,AcceptabilityJudgment,В правом углах шептали Кеша и Егор.,NULL,1651824436214,T6821,F,74,17,NA,NA,"В правом углах шептали Кеша и Егор.",NA,bad,"NA",NA,NA,NA,NA,Any addtional parameters were appended as additional columns
# 27. Whether or not answer was correct (NULL if N/A).
# 28. Time taken to answer..
# 29. Comments.
1651824488,e50605c6abcf1345994486909dca1218,PennController,27,0,filler1,NULL,Controller-AcceptabilityJudgment,AcceptabilityJudgment,NULL,7,1651824436214,T6821,F,74,17,NA,NA,"В правом углах шептали Кеша и Егор.",NA,bad,"NA",NA,NA,NA,NA,NULL,460,Any addtional parameters were appended as additional columns
# 27. Comments.
1651824488,e50605c6abcf1345994486909dca1218,PennController,27,0,filler1,NULL,PennController,27,_Trial_,End,1651824436522,T6821,F,74,17,NA,NA,"В правом углах шептали Кеша и Егор.",NA,bad,"NA",NA,NA,NA,NA,NULL
1651824488,e50605c6abcf1345994486909dca1218,PennController,10,0,stimul1,NULL,PennController,10,_Trial_,Start,1651824436524,T6821,A,11,3,name_pron,sg,"На городском пляже загорал Ваня и я.",unacc,NA,"NA",NA,NA,NA,NA,NULL
1651824488,e50605c6abcf1345994486909dca1218,PennController,10,0,stimul1,NULL,Controller-AcceptabilityJudgment,AcceptabilityJudgment,На городском пляже загорал Ваня и я.,NULL,1651824439444,T6821,A,11,3,name_pron,sg,"На городском пляже загорал Ваня и я.",unacc,NA,"NA",NA,NA,NA,NA,Any addtional parameters were appended as additional columns
# 27. Whether or not answer was correct (NULL if N/A).
# 28. Time taken to answer..
# 29. Comments.
1651824488,e50605c6abcf1345994486909dca1218,PennController,10,0,stimul1,NULL,Controller-AcceptabilityJudgment,AcceptabilityJudgment,NULL,7,1651824439444,T6821,A,11,3,name_pron,sg,"На городском пляже загорал Ваня и я.",unacc,NA,"NA",NA,NA,NA,NA,NULL,1906,Any addtional parameters were appended as additional columns
# 27. Comments.
1651824488,e50605c6abcf1345994486909dca1218,PennController,10,0,stimul1,NULL,PennController,10,_Trial_,End,1651824439751,T6821,A,11,3,name_pron,sg,"На городском пляже загорал Ваня и я.",unacc,NA,"NA",NA,NA,NA,NA,NULL
1651824488,e50605c6abcf1345994486909dca1218,PennController,28,0,filler1,NULL,PennController,28,_Trial_,Start,1651824439753,T6821,F,65,17,NA,NA,"В шахматном турнире участвовали Петя и Вася.",NA,good,"Где участвовали Петя и Вася?",в автомобильных гонках,во всероссийском конкурсе,в шахматном турнире,в шахматном турнире,NULL
1651824488,e50605c6abcf1345994486909dca1218,PennController,28,0,filler1,NULL,Controller-AcceptabilityJudgment,AcceptabilityJudgment,В шахматном турнире участвовали Петя и Вася.,NULL,1651824441153,T6821,F,65,17,NA,NA,"В шахматном турнире участвовали Петя и Вася.",NA,good,"Где участвовали Петя и Вася?",в автомобильных гонках,во всероссийском конкурсе,в шахматном турнире,в шахматном турнире,Any addtional parameters were appended as additional columns
# 27. Whether or not answer was correct (NULL if N/A).
# 28. Time taken to answer..
# 29. Comments.
1651824488,e50605c6abcf1345994486909dca1218,PennController,28,0,filler1,NULL,Controller-AcceptabilityJudgment,AcceptabilityJudgment,NULL,7,1651824441153,T6821,F,65,17,NA,NA,"В шахматном турнире участвовали Петя и Вася.",NA,good,"Где участвовали Петя и Вася?",в автомобильных гонках,во всероссийском конкурсе,в шахматном турнире,в шахматном турнире,NULL,392,Any addtional parameters were appended as additional columns
1651824488,e50605c6abcf1345994486909dca1218,PennController,28,0,filler1,NULL,Controller-Question,Question,Где участвовали Петя и Вася?,в шахматном турнире,1651824443368,T6821,F,65,17,NA,NA,"В шахматном турнире участвовали Петя и Вася.",NA,good,"Где участвовали Петя и Вася?",в автомобильных гонках,во всероссийском конкурсе,в шахматном турнире,в шахматном турнире,1,1905,Any addtional parameters were appended as additional columns
# 27. Comments.
1651824488,e50605c6abcf1345994486909dca1218,PennController,28,0,filler1,NULL,PennController,28,_Trial_,End,1651824443370,T6821,F,65,17,NA,NA,"В шахматном турнире участвовали Петя и Вася.",NA,good,"Где участвовали Петя и Вася?",в автомобильных гонках,во всероссийском конкурсе,в шахматном турнире,в шахматном турнире,NULL
1651824488,e50605c6abcf1345994486909dca1218,PennController,12,0,stimul1,NULL,PennController,12,_Trial_,Start,1651824443372,T6821,A,33,9,pron_name,sg,"На дачном участке копал я и Илья.",unerg,NA,"NA",NA,NA,NA,NA,NULL
1651824488,e50605c6abcf1345994486909dca1218,PennController,12,0,stimul1,NULL,Controller-AcceptabilityJudgment,AcceptabilityJudgment,На дачном участке копал я и Илья.,NULL,1651824446131,T6821,A,33,9,pron_name,sg,"На дачном участке копал я и Илья.",unerg,NA,"NA",NA,NA,NA,NA,Any addtional parameters were appended as additional columns
# 27. Whether or not answer was correct (NULL if N/A).
# 28. Time taken to answer..
# 29. Comments.
1651824488,e50605c6abcf1345994486909dca1218,PennController,12,0,stimul1,NULL,Controller-AcceptabilityJudgment,AcceptabilityJudgment,NULL,7,1651824446131,T6821,A,33,9,pron_name,sg,"На дачном участке копал я и Илья.",unerg,NA,"NA",NA,NA,NA,NA,NULL,1747,Any addtional parameters were appended as additional columns
# 27. Comments.
1651824488,e50605c6abcf1345994486909dca1218,PennController,12,0,stimul1,NULL,PennController,12,_Trial_,End,1651824446437,T6821,A,33,9,pron_name,sg,"На дачном участке копал я и Илья.",unerg,NA,"NA",NA,NA,NA,NA,NULL
1651824488,e50605c6abcf1345994486909dca1218,PennController,29,0,filler1,NULL,PennController,29,_Trial_,Start,1651824446439,T6821,F,75,17,NA,NA,"В соседнюю страны путешествовали Лёва и Федя.",NA,bad,"NA",NA,NA,NA,NA,NULL
1651824488,e50605c6abcf1345994486909dca1218,PennController,29,0,filler1,NULL,Controller-AcceptabilityJudgment,AcceptabilityJudgment,В соседнюю страны путешествовали Лёва и Федя.,NULL,1651824448528,T6821,F,75,17,NA,NA,"В соседнюю страны путешествовали Лёва и Федя.",NA,bad,"NA",NA,NA,NA,NA,Any addtional parameters were appended as additional columns
# 27. Whether or not answer was correct (NULL if N/A).
# 28. Time taken to answer..
# 29. Comments.
1651824488,e50605c6abcf1345994486909dca1218,PennController,29,0,filler1,NULL,Controller-AcceptabilityJudgment,AcceptabilityJudgment,NULL,7,1651824448528,T6821,F,75,17,NA,NA,"В соседнюю страны путешествовали Лёва и Федя.",NA,bad,"NA",NA,NA,NA,NA,NULL,1075,Any addtional parameters were appended as additional columns
# 27. Comments.
1651824488,e50605c6abcf1345994486909dca1218,PennController,29,0,filler1,NULL,PennController,29,_Trial_,End,1651824448835,T6821,F,75,17,NA,NA,"В соседнюю страны путешествовали Лёва и Федя.",NA,bad,"NA",NA,NA,NA,NA,NULL
1651824488,e50605c6abcf1345994486909dca1218,PennController,9,0,stimul1,NULL,PennController,9,_Trial_,Start,1651824448838,T6821,A,8,2,name_pron,pl,"В районном центре жили Петя и я.",unacc,NA,"NA",NA,NA,NA,NA,NULL
1651824488,e50605c6abcf1345994486909dca1218,PennController,9,0,stimul1,NULL,Controller-AcceptabilityJudgment,AcceptabilityJudgment,В районном центре жили Петя и я.,NULL,1651824450178,T6821,A,8,2,name_pron,pl,"В районном центре жили Петя и я.",unacc,NA,"NA",NA,NA,NA,NA,Any addtional parameters were appended as additional columns
# 27. Whether or not answer was correct (NULL if N/A).
# 28. Time taken to answer..
# 29. Comments.
1651824488,e50605c6abcf1345994486909dca1218,PennController,9,0,stimul1,NULL,Controller-AcceptabilityJudgment,AcceptabilityJudgment,NULL,7,1651824450178,T6821,A,8,2,name_pron,pl,"В районном центре жили Петя и я.",unacc,NA,"NA",NA,NA,NA,NA,NULL,328,Any addtional parameters were appended as additional columns
# 27. Comments.
1651824488,e50605c6abcf1345994486909dca1218,PennController,9,0,stimul1,NULL,PennController,9,_Trial_,End,1651824450483,T6821,A,8,2,name_pron,pl,"В районном центре жили Петя и я.",unacc,NA,"NA",NA,NA,NA,NA,NULL
1651824488,e50605c6abcf1345994486909dca1218,PennController,30,0,filler1,NULL,PennController,30,_Trial_,Start,1651824450484,T6821,F,69,17,NA,NA,"В волонтёрском центре помогали Гриша и Слава.",NA,good,"NA",NA,NA,NA,NA,NULL
1651824488,e50605c6abcf1345994486909dca1218,PennController,30,0,filler1,NULL,Controller-AcceptabilityJudgment,AcceptabilityJudgment,В волонтёрском центре помогали Гриша и Слава.,NULL,1651824451820,T6821,F,69,17,NA,NA,"В волонтёрском центре помогали Гриша и Слава.",NA,good,"NA",NA,NA,NA,NA,Any addtional parameters were appended as additional columns
# 27. Whether or not answer was correct (NULL if N/A).
# 28. Time taken to answer..
# 29. Comments.
1651824488,e50605c6abcf1345994486909dca1218,PennController,30,0,filler1,NULL,Controller-AcceptabilityJudgment,AcceptabilityJudgment,NULL,7,1651824451820,T6821,F,69,17,NA,NA,"В волонтёрском центре помогали Гриша и Слава.",NA,good,"NA",NA,NA,NA,NA,NULL,321,Any addtional parameters were appended as additional columns
# 27. Comments.
1651824488,e50605c6abcf1345994486909dca1218,PennController,30,0,filler1,NULL,PennController,30,_Trial_,End,1651824452126,T6821,F,69,17,NA,NA,"В волонтёрском центре помогали Гриша и Слава.",NA,good,"NA",NA,NA,NA,NA,NULL
1651824488,e50605c6abcf1345994486909dca1218,PennController,14,0,stimul1,NULL,PennController,14,_Trial_,Start,1651824452128,T6821,A,43,11,name_pron,sg,"На школьной вечеринке танцевал Данила и я.",unerg,NA,"NA",NA,NA,NA,NA,NULL
1651824488,e50605c6abcf1345994486909dca1218,PennController,14,0,stimul1,NULL,Controller-AcceptabilityJudgment,AcceptabilityJudgment,На школьной вечеринке танцевал Данила и я.,NULL,1651824453758,T6821,A,43,11,name_pron,sg,"На школьной вечеринке танцевал Данила и я.",unerg,NA,"NA",NA,NA,NA,NA,Any addtional parameters were appended as additional columns
# 27. Whether or not answer was correct (NULL if N/A).
# 28. Time taken to answer..
# 29. Comments.
1651824488,e50605c6abcf1345994486909dca1218,PennController,14,0,stimul1,NULL,Controller-AcceptabilityJudgment,AcceptabilityJudgment,NULL,7,1651824453758,T6821,A,43,11,name_pron,sg,"На школьной вечеринке танцевал Данила и я.",unerg,NA,"NA",NA,NA,NA,NA,NULL,617,Any addtional parameters were appended as additional columns
# 27. Comments.
1651824488,e50605c6abcf1345994486909dca1218,PennController,14,0,stimul1,NULL,PennController,14,_Trial_,End,1651824454064,T6821,A,43,11,name_pron,sg,"На школьной вечеринке танцевал Данила и я.",unerg,NA,"NA",NA,NA,NA,NA,NULL
1651824488,e50605c6abcf1345994486909dca1218,PennController,31,0,filler1,NULL,PennController,31,_Trial_,Start,1651824454066,T6821,F,76,17,NA,NA,"На шумной улицах разговаривали Максим и Гена.",NA,bad,"NA",NA,NA,NA,NA,NULL
1651824488,e50605c6abcf1345994486909dca1218,PennController,31,0,filler1,NULL,Controller-AcceptabilityJudgment,AcceptabilityJudgment,На шумной улицах разговаривали Максим и Гена.,NULL,1651824455570,T6821,F,76,17,NA,NA,"На шумной улицах разговаривали Максим и Гена.",NA,bad,"NA",NA,NA,NA,NA,Any addtional parameters were appended as additional columns
# 27. Whether or not answer was correct (NULL if N/A).
# 28. Time taken to answer..
# 29. Comments.
1651824488,e50605c6abcf1345994486909dca1218,PennController,31,0,filler1,NULL,Controller-AcceptabilityJudgment,AcceptabilityJudgment,NULL,7,1651824455570,T6821,F,76,17,NA,NA,"На шумной улицах разговаривали Максим и Гена.",NA,bad,"NA",NA,NA,NA,NA,NULL,488,Any addtional parameters were appended as additional columns
# 27. Comments.
1651824488,e50605c6abcf1345994486909dca1218,PennController,31,0,filler1,NULL,PennController,31,_Trial_,End,1651824455873,T6821,F,76,17,NA,NA,"На шумной улицах разговаривали Максим и Гена.",NA,bad,"NA",NA,NA,NA,NA,NULL
# 13. Comments.
1651824488,e50605c6abcf1345994486909dca1218,PennController,4,0,break,NULL,PennController,3,_Trial_,Start,1651824455875,NULL
1651824488,e50605c6abcf1345994486909dca1218,PennController,4,0,break,NULL,Button,continue2,Click,Click,1651824456889,NULL
1651824488,e50605c6abcf1345994486909dca1218,PennController,4,0,break,NULL,PennController,3,_Trial_,End,1651824456890,NULL
# 13. ParticipantID.
# 14. group.
# 15. sentence_id.
# 16. lexicalization.
# 17. conjuncts_order.
# 18. agreement.
# 19. sentence.
# 20. predicate_type.
# 21. filler_type.
# 22. question.
# 23. answer_1.
# 24. answer_2.
# 25. answer_3.
# 26. correct_answer.
# 27. Comments.
1651824488,e50605c6abcf1345994486909dca1218,PennController,22,0,stimul2,NULL,PennController,22,_Trial_,Start,1651824456892,T6821,A,59,15,name_pron,sg,"На детской площадке играл Андрей и я.",unerg,NA,"NA",NA,NA,NA,NA,NULL
1651824488,e50605c6abcf1345994486909dca1218,PennController,22,0,stimul2,NULL,Controller-AcceptabilityJudgment,AcceptabilityJudgment,На детской площадке играл Андрей и я.,NULL,1651824458390,T6821,A,59,15,name_pron,sg,"На детской площадке играл Андрей и я.",unerg,NA,"NA",NA,NA,NA,NA,Any addtional parameters were appended as additional columns
# 27. Whether or not answer was correct (NULL if N/A).
# 28. Time taken to answer..
# 29. Comments.
1651824488,e50605c6abcf1345994486909dca1218,PennController,22,0,stimul2,NULL,Controller-AcceptabilityJudgment,AcceptabilityJudgment,NULL,7,1651824458390,T6821,A,59,15,name_pron,sg,"На детской площадке играл Андрей и я.",unerg,NA,"NA",NA,NA,NA,NA,NULL,489,Any addtional parameters were appended as additional columns
# 27. Comments.
1651824488,e50605c6abcf1345994486909dca1218,PennController,22,0,stimul2,NULL,PennController,22,_Trial_,End,1651824458695,T6821,A,59,15,name_pron,sg,"На детской площадке играл Андрей и я.",unerg,NA,"NA",NA,NA,NA,NA,NULL
1651824488,e50605c6abcf1345994486909dca1218,PennController,32,0,filler2,NULL,PennController,32,_Trial_,Start,1651824458697,T6821,F,70,17,NA,NA,"В холодную воду прыгали Лёва и Денис.",NA,good,"NA",NA,NA,NA,NA,NULL
1651824488,e50605c6abcf1345994486909dca1218,PennController,32,0,filler2,NULL,Controller-AcceptabilityJudgment,AcceptabilityJudgment,В холодную воду прыгали Лёва и Денис.,NULL,1651824460019,T6821,F,70,17,NA,NA,"В холодную воду прыгали Лёва и Денис.",NA,good,"NA",NA,NA,NA,NA,Any addtional parameters were appended as additional columns
# 27. Whether or not answer was correct (NULL if N/A).
# 28. Time taken to answer..
# 29. Comments.
1651824488,e50605c6abcf1345994486909dca1218,PennController,32,0,filler2,NULL,Controller-AcceptabilityJudgment,AcceptabilityJudgment,NULL,7,1651824460019,T6821,F,70,17,NA,NA,"В холодную воду прыгали Лёва и Денис.",NA,good,"NA",NA,NA,NA,NA,NULL,302,Any addtional parameters were appended as additional columns
# 27. Comments.
1651824488,e50605c6abcf1345994486909dca1218,PennController,32,0,filler2,NULL,PennController,32,_Trial_,End,1651824460323,T6821,F,70,17,NA,NA,"В холодную воду прыгали Лёва и Денис.",NA,good,"NA",NA,NA,NA,NA,NULL
1651824488,e50605c6abcf1345994486909dca1218,PennController,23,0,stimul2,NULL,PennController,23,_Trial_,Start,1651824460325,T6821,A,62,16,pron_name,pl,"В продуктовый магазин шли я и Гриша.",unerg,NA,"NA",NA,NA,NA,NA,NULL
1651824488,e50605c6abcf1345994486909dca1218,PennController,23,0,stimul2,NULL,Controller-AcceptabilityJudgment,AcceptabilityJudgment,В продуктовый магазин шли я и Гриша.,NULL,1651824461675,T6821,A,62,16,pron_name,pl,"В продуктовый магазин шли я и Гриша.",unerg,NA,"NA",NA,NA,NA,NA,Any addtional parameters were appended as additional columns
# 27. Whether or not answer was correct (NULL if N/A).
# 28. Time taken to answer..
# 29. Comments.
1651824488,e50605c6abcf1345994486909dca1218,PennController,23,0,stimul2,NULL,Controller-AcceptabilityJudgment,AcceptabilityJudgment,NULL,7,1651824461675,T6821,A,62,16,pron_name,pl,"В продуктовый магазин шли я и Гриша.",unerg,NA,"NA",NA,NA,NA,NA,NULL,308,Any addtional parameters were appended as additional columns
# 27. Comments.
1651824488,e50605c6abcf1345994486909dca1218,PennController,23,0,stimul2,NULL,PennController,23,_Trial_,End,1651824461980,T6821,A,62,16,pron_name,pl,"В продуктовый магазин шли я и Гриша.",unerg,NA,"NA",NA,NA,NA,NA,NULL
1651824488,e50605c6abcf1345994486909dca1218,PennController,33,0,filler2,NULL,PennController,33,_Trial_,Start,1651824461982,T6821,F,77,17,NA,NA,"В крытый бассейны ныряли Вова и Серёжа.",NA,bad,"NA",NA,NA,NA,NA,NULL
1651824488,e50605c6abcf1345994486909dca1218,PennController,33,0,filler2,NULL,Controller-AcceptabilityJudgment,AcceptabilityJudgment,В крытый бассейны ныряли Вова и Серёжа.,NULL,1651824463867,T6821,F,77,17,NA,NA,"В крытый бассейны ныряли Вова и Серёжа.",NA,bad,"NA",NA,NA,NA,NA,Any addtional parameters were appended as additional columns
# 27. Whether or not answer was correct (NULL if N/A).
# 28. Time taken to answer..
# 29. Comments.
1651824488,e50605c6abcf1345994486909dca1218,PennController,33,0,filler2,NULL,Controller-AcceptabilityJudgment,AcceptabilityJudgment,NULL,7,1651824463867,T6821,F,77,17,NA,NA,"В крытый бассейны ныряли Вова и Серёжа.",NA,bad,"NA",NA,NA,NA,NA,NULL,874,Any addtional parameters were appended as additional columns
# 27. Comments.
1651824488,e50605c6abcf1345994486909dca1218,PennController,33,0,filler2,NULL,PennController,33,_Trial_,End,1651824464172,T6821,F,77,17,NA,NA,"В крытый бассейны ныряли Вова и Серёжа.",NA,bad,"NA",NA,NA,NA,NA,NULL
1651824488,e50605c6abcf1345994486909dca1218,PennController,20,0,stimul2,NULL,PennController,20,_Trial_,Start,1651824464174,T6821,A,49,13,pron_name,sg,"В обувной мастерской работал я и Костя.",unerg,NA,"NA",NA,NA,NA,NA,NULL
1651824488,e50605c6abcf1345994486909dca1218,PennController,20,0,stimul2,NULL,Controller-AcceptabilityJudgment,AcceptabilityJudgment,В обувной мастерской работал я и Костя.,NULL,1651824465496,T6821,A,49,13,pron_name,sg,"В обувной мастерской работал я и Костя.",unerg,NA,"NA",NA,NA,NA,NA,Any addtional parameters were appended as additional columns
# 27. Whether or not answer was correct (NULL if N/A).
# 28. Time taken to answer..
# 29. Comments.
1651824488,e50605c6abcf1345994486909dca1218,PennController,20,0,stimul2,NULL,Controller-AcceptabilityJudgment,AcceptabilityJudgment,NULL,7,1651824465496,T6821,A,49,13,pron_name,sg,"В обувной мастерской работал я и Костя.",unerg,NA,"NA",NA,NA,NA,NA,NULL,309,Any addtional parameters were appended as additional columns
# 27. Comments.
1651824488,e50605c6abcf1345994486909dca1218,PennController,20,0,stimul2,NULL,PennController,20,_Trial_,End,1651824465801,T6821,A,49,13,pron_name,sg,"В обувной мастерской работал я и Костя.",unerg,NA,"NA",NA,NA,NA,NA,NULL
1651824488,e50605c6abcf1345994486909dca1218,PennController,34,0,filler2,NULL,PennController,34,_Trial_,Start,1651824465802,T6821,F,71,17,NA,NA,"В билетной кассе платили Лёша и Вася.",NA,good,"NA",NA,NA,NA,NA,NULL
1651824488,e50605c6abcf1345994486909dca1218,PennController,34,0,filler2,NULL,Controller-AcceptabilityJudgment,AcceptabilityJudgment,В билетной кассе платили Лёша и Вася.,NULL,1651824467047,T6821,F,71,17,NA,NA,"В билетной кассе платили Лёша и Вася.",NA,good,"NA",NA,NA,NA,NA,Any addtional parameters were appended as additional columns
# 27. Whether or not answer was correct (NULL if N/A).
# 28. Time taken to answer..
# 29. Comments.
1651824488,e50605c6abcf1345994486909dca1218,PennController,34,0,filler2,NULL,Controller-AcceptabilityJudgment,AcceptabilityJudgment,NULL,7,1651824467047,T6821,F,71,17,NA,NA,"В билетной кассе платили Лёша и Вася.",NA,good,"NA",NA,NA,NA,NA,NULL,222,Any addtional parameters were appended as additional columns
# 27. Comments.
1651824488,e50605c6abcf1345994486909dca1218,PennController,34,0,filler2,NULL,PennController,34,_Trial_,End,1651824467352,T6821,F,71,17,NA,NA,"В билетной кассе платили Лёша и Вася.",NA,good,"NA",NA,NA,NA,NA,NULL
1651824488,e50605c6abcf1345994486909dca1218,PennController,18,0,stimul2,NULL,PennController,18,_Trial_,Start,1651824467354,T6821,A,27,7,name_pron,sg,"На футбольных воротах стоял Влад и я.",unacc,NA,"NA",NA,NA,NA,NA,NULL
1651824488,e50605c6abcf1345994486909dca1218,PennController,18,0,stimul2,NULL,Controller-AcceptabilityJudgment,AcceptabilityJudgment,На футбольных воротах стоял Влад и я.,NULL,1651824468760,T6821,A,27,7,name_pron,sg,"На футбольных воротах стоял Влад и я.",unacc,NA,"NA",NA,NA,NA,NA,Any addtional parameters were appended as additional columns
# 27. Whether or not answer was correct (NULL if N/A).
# 28. Time taken to answer..
# 29. Comments.
1651824488,e50605c6abcf1345994486909dca1218,PennController,18,0,stimul2,NULL,Controller-AcceptabilityJudgment,AcceptabilityJudgment,NULL,7,1651824468760,T6821,A,27,7,name_pron,sg,"На футбольных воротах стоял Влад и я.",unacc,NA,"NA",NA,NA,NA,NA,NULL,399,Any addtional parameters were appended as additional columns
# 27. Comments.
1651824488,e50605c6abcf1345994486909dca1218,PennController,18,0,stimul2,NULL,PennController,18,_Trial_,End,1651824469065,T6821,A,27,7,name_pron,sg,"На футбольных воротах стоял Влад и я.",unacc,NA,"NA",NA,NA,NA,NA,NULL
1651824488,e50605c6abcf1345994486909dca1218,PennController,35,0,filler2,NULL,PennController,35,_Trial_,Start,1651824469067,T6821,F,78,17,NA,NA,"В грязной прихожих пылесосили Артём и Дима.",NA,bad,"NA",NA,NA,NA,NA,NULL
1651824488,e50605c6abcf1345994486909dca1218,PennController,35,0,filler2,NULL,Controller-AcceptabilityJudgment,AcceptabilityJudgment,В грязной прихожих пылесосили Артём и Дима.,NULL,1651824470438,T6821,F,78,17,NA,NA,"В грязной прихожих пылесосили Артём и Дима.",NA,bad,"NA",NA,NA,NA,NA,Any addtional parameters were appended as additional columns
# 27. Whether or not answer was correct (NULL if N/A).
# 28. Time taken to answer..
# 29. Comments.
1651824488,e50605c6abcf1345994486909dca1218,PennController,35,0,filler2,NULL,Controller-AcceptabilityJudgment,AcceptabilityJudgment,NULL,7,1651824470438,T6821,F,78,17,NA,NA,"В грязной прихожих пылесосили Артём и Дима.",NA,bad,"NA",NA,NA,NA,NA,NULL,359,Any addtional parameters were appended as additional columns
# 27. Comments.
1651824488,e50605c6abcf1345994486909dca1218,PennController,35,0,filler2,NULL,PennController,35,_Trial_,End,1651824470743,T6821,F,78,17,NA,NA,"В грязной прихожих пылесосили Артём и Дима.",NA,bad,"NA",NA,NA,NA,NA,NULL
1651824488,e50605c6abcf1345994486909dca1218,PennController,16,0,stimul2,NULL,PennController,16,_Trial_,Start,1651824470746,T6821,A,17,5,pron_name,sg,"На садовой скамейке сидел я и Никита.",unacc,NA,"NA",NA,NA,NA,NA,NULL
1651824488,e50605c6abcf1345994486909dca1218,PennController,16,0,stimul2,NULL,Controller-AcceptabilityJudgment,AcceptabilityJudgment,На садовой скамейке сидел я и Никита.,NULL,1651824472017,T6821,A,17,5,pron_name,sg,"На садовой скамейке сидел я и Никита.",unacc,NA,"NA",NA,NA,NA,NA,Any addtional parameters were appended as additional columns
# 27. Whether or not answer was correct (NULL if N/A).
# 28. Time taken to answer..
# 29. Comments.
1651824488,e50605c6abcf1345994486909dca1218,PennController,16,0,stimul2,NULL,Controller-AcceptabilityJudgment,AcceptabilityJudgment,NULL,7,1651824472017,T6821,A,17,5,pron_name,sg,"На садовой скамейке сидел я и Никита.",unacc,NA,"NA",NA,NA,NA,NA,NULL,262,Any addtional parameters were appended as additional columns
# 27. Comments.
1651824488,e50605c6abcf1345994486909dca1218,PennController,16,0,stimul2,NULL,PennController,16,_Trial_,End,1651824472320,T6821,A,17,5,pron_name,sg,"На садовой скамейке сидел я и Никита.",unacc,NA,"NA",NA,NA,NA,NA,NULL
1651824488,e50605c6abcf1345994486909dca1218,PennController,36,0,filler2,NULL,PennController,36,_Trial_,Start,1651824472321,T6821,F,66,17,NA,NA,"В мужской раздевалке болтали Ваня и Коля.",NA,good,"Где болтали Ваня и Коля?",в мужской раздевалке,в пустом классе,в шумном переулке,в мужской раздевалке,NULL
1651824488,e50605c6abcf1345994486909dca1218,PennController,36,0,filler2,NULL,Controller-AcceptabilityJudgment,AcceptabilityJudgment,В мужской раздевалке болтали Ваня и Коля.,NULL,1651824473704,T6821,F,66,17,NA,NA,"В мужской раздевалке болтали Ваня и Коля.",NA,good,"Где болтали Ваня и Коля?",в мужской раздевалке,в пустом классе,в шумном переулке,в мужской раздевалке,Any addtional parameters were appended as additional columns
# 27. Whether or not answer was correct (NULL if N/A).
# 28. Time taken to answer..
# 29. Comments.
1651824488,e50605c6abcf1345994486909dca1218,PennController,36,0,filler2,NULL,Controller-AcceptabilityJudgment,AcceptabilityJudgment,NULL,7,1651824473704,T6821,F,66,17,NA,NA,"В мужской раздевалке болтали Ваня и Коля.",NA,good,"Где болтали Ваня и Коля?",в мужской раздевалке,в пустом классе,в шумном переулке,в мужской раздевалке,NULL,363,Any addtional parameters were appended as additional columns
1651824488,e50605c6abcf1345994486909dca1218,PennController,36,0,filler2,NULL,Controller-Question,Question,Где болтали Ваня и Коля?,в мужской раздевалке,1651824475367,T6821,F,66,17,NA,NA,"В мужской раздевалке болтали Ваня и Коля.",NA,good,"Где болтали Ваня и Коля?",в мужской раздевалке,в пустом классе,в шумном переулке,в мужской раздевалке,1,1358,Any addtional parameters were appended as additional columns
# 27. Comments.
1651824488,e50605c6abcf1345994486909dca1218,PennController,36,0,filler2,NULL,PennController,36,_Trial_,End,1651824475373,T6821,F,66,17,NA,NA,"В мужской раздевалке болтали Ваня и Коля.",NA,good,"Где болтали Ваня и Коля?",в мужской раздевалке,в пустом классе,в шумном переулке,в мужской раздевалке,NULL
1651824488,e50605c6abcf1345994486909dca1218,PennController,17,0,stimul2,NULL,PennController,17,_Trial_,Start,1651824475374,T6821,A,24,6,name_pron,pl,"В педагогический университет поступали Паша и я.",unacc,NA,"NA",NA,NA,NA,NA,NULL
1651824488,e50605c6abcf1345994486909dca1218,PennController,17,0,stimul2,NULL,Controller-AcceptabilityJudgment,AcceptabilityJudgment,В педагогический университет поступали Паша и я.,NULL,1651824476861,T6821,A,24,6,name_pron,pl,"В педагогический университет поступали Паша и я.",unacc,NA,"NA",NA,NA,NA,NA,Any addtional parameters were appended as additional columns
# 27. Whether or not answer was correct (NULL if N/A).
# 28. Time taken to answer..
# 29. Comments.
1651824488,e50605c6abcf1345994486909dca1218,PennController,17,0,stimul2,NULL,Controller-AcceptabilityJudgment,AcceptabilityJudgment,NULL,7,1651824476861,T6821,A,24,6,name_pron,pl,"В педагогический университет поступали Паша и я.",unacc,NA,"NA",NA,NA,NA,NA,NULL,478,Any addtional parameters were appended as additional columns
# 27. Comments.
1651824488,e50605c6abcf1345994486909dca1218,PennController,17,0,stimul2,NULL,PennController,17,_Trial_,End,1651824477166,T6821,A,24,6,name_pron,pl,"В педагогический университет поступали Паша и я.",unacc,NA,"NA",NA,NA,NA,NA,NULL
1651824488,e50605c6abcf1345994486909dca1218,PennController,37,0,filler2,NULL,PennController,37,_Trial_,Start,1651824477169,T6821,F,79,17,NA,NA,"В последний вагоны впрыгивали Илья и Кирилл.",NA,bad,"NA",NA,NA,NA,NA,NULL
1651824488,e50605c6abcf1345994486909dca1218,PennController,37,0,filler2,NULL,Controller-AcceptabilityJudgment,AcceptabilityJudgment,В последний вагоны впрыгивали Илья и Кирилл.,NULL,1651824478555,T6821,F,79,17,NA,NA,"В последний вагоны впрыгивали Илья и Кирилл.",NA,bad,"NA",NA,NA,NA,NA,Any addtional parameters were appended as additional columns
# 27. Whether or not answer was correct (NULL if N/A).
# 28. Time taken to answer..
# 29. Comments.
1651824488,e50605c6abcf1345994486909dca1218,PennController,37,0,filler2,NULL,Controller-AcceptabilityJudgment,AcceptabilityJudgment,NULL,7,1651824478555,T6821,F,79,17,NA,NA,"В последний вагоны впрыгивали Илья и Кирилл.",NA,bad,"NA",NA,NA,NA,NA,NULL,372,Any addtional parameters were appended as additional columns
# 27. Comments.
1651824488,e50605c6abcf1345994486909dca1218,PennController,37,0,filler2,NULL,PennController,37,_Trial_,End,1651824478857,T6821,F,79,17,NA,NA,"В последний вагоны впрыгивали Илья и Кирилл.",NA,bad,"NA",NA,NA,NA,NA,NULL
1651824488,e50605c6abcf1345994486909dca1218,PennController,21,0,stimul2,NULL,PennController,21,_Trial_,Start,1651824478859,T6821,A,56,14,name_pron,pl,"На местном стадионе бегали Кирилл и я.",unerg,NA,"NA",NA,NA,NA,NA,NULL
1651824488,e50605c6abcf1345994486909dca1218,PennController,21,0,stimul2,NULL,Controller-AcceptabilityJudgment,AcceptabilityJudgment,На местном стадионе бегали Кирилл и я.,NULL,1651824480279,T6821,A,56,14,name_pron,pl,"На местном стадионе бегали Кирилл и я.",unerg,NA,"NA",NA,NA,NA,NA,Any addtional parameters were appended as additional columns
# 27. Whether or not answer was correct (NULL if N/A).
# 28. Time taken to answer..
# 29. Comments.
1651824488,e50605c6abcf1345994486909dca1218,PennController,21,0,stimul2,NULL,Controller-AcceptabilityJudgment,AcceptabilityJudgment,NULL,7,1651824480279,T6821,A,56,14,name_pron,pl,"На местном стадионе бегали Кирилл и я.",unerg,NA,"NA",NA,NA,NA,NA,NULL,410,Any addtional parameters were appended as additional columns
# 27. Comments.
1651824488,e50605c6abcf1345994486909dca1218,PennController,21,0,stimul2,NULL,PennController,21,_Trial_,End,1651824480584,T6821,A,56,14,name_pron,pl,"На местном стадионе бегали Кирилл и я.",unerg,NA,"NA",NA,NA,NA,NA,NULL
1651824488,e50605c6abcf1345994486909dca1218,PennController,38,0,filler2,NULL,PennController,38,_Trial_,Start,1651824480585,T6821,F,72,17,NA,NA,"На красную кнопку нажимали Никита и Слава.",NA,good,"NA",NA,NA,NA,NA,NULL
1651824488,e50605c6abcf1345994486909dca1218,PennController,38,0,filler2,NULL,Controller-AcceptabilityJudgment,AcceptabilityJudgment,На красную кнопку нажимали Никита и Слава.,NULL,1651824482077,T6821,F,72,17,NA,NA,"На красную кнопку нажимали Никита и Слава.",NA,good,"NA",NA,NA,NA,NA,Any addtional parameters were appended as additional columns
# 27. Whether or not answer was correct (NULL if N/A).
# 28. Time taken to answer..
# 29. Comments.
1651824488,e50605c6abcf1345994486909dca1218,PennController,38,0,filler2,NULL,Controller-AcceptabilityJudgment,AcceptabilityJudgment,NULL,7,1651824482077,T6821,F,72,17,NA,NA,"На красную кнопку нажимали Никита и Слава.",NA,good,"NA",NA,NA,NA,NA,NULL,475,Any addtional parameters were appended as additional columns
# 27. Comments.
1651824488,e50605c6abcf1345994486909dca1218,PennController,38,0,filler2,NULL,PennController,38,_Trial_,End,1651824482381,T6821,F,72,17,NA,NA,"На красную кнопку нажимали Никита и Слава.",NA,good,"NA",NA,NA,NA,NA,NULL
1651824488,e50605c6abcf1345994486909dca1218,PennController,19,0,stimul2,NULL,PennController,19,_Trial_,Start,1651824482384,T6821,A,30,8,pron_name,pl,"На вечерние занятия приходили я и Володя.",unacc,NA,"NA",NA,NA,NA,NA,NULL
1651824488,e50605c6abcf1345994486909dca1218,PennController,19,0,stimul2,NULL,Controller-AcceptabilityJudgment,AcceptabilityJudgment,На вечерние занятия приходили я и Володя.,NULL,1651824484530,T6821,A,30,8,pron_name,pl,"На вечерние занятия приходили я и Володя.",unacc,NA,"NA",NA,NA,NA,NA,Any addtional parameters were appended as additional columns
# 27. Whether or not answer was correct (NULL if N/A).
# 28. Time taken to answer..
# 29. Comments.
1651824488,e50605c6abcf1345994486909dca1218,PennController,19,0,stimul2,NULL,Controller-AcceptabilityJudgment,AcceptabilityJudgment,NULL,7,1651824484530,T6821,A,30,8,pron_name,pl,"На вечерние занятия приходили я и Володя.",unacc,NA,"NA",NA,NA,NA,NA,NULL,1127,Any addtional parameters were appended as additional columns
# 27. Comments.
1651824488,e50605c6abcf1345994486909dca1218,PennController,19,0,stimul2,NULL,PennController,19,_Trial_,End,1651824484835,T6821,A,30,8,pron_name,pl,"На вечерние занятия приходили я и Володя.",unacc,NA,"NA",NA,NA,NA,NA,NULL
1651824488,e50605c6abcf1345994486909dca1218,PennController,39,0,filler2,NULL,PennController,39,_Trial_,Start,1651824484837,T6821,F,80,17,NA,NA,"До лесной опушек добрели Федя и Митя.",NA,bad,"NA",NA,NA,NA,NA,NULL
1651824488,e50605c6abcf1345994486909dca1218,PennController,39,0,filler2,NULL,Controller-AcceptabilityJudgment,AcceptabilityJudgment,До лесной опушек добрели Федя и Митя.,NULL,1651824486935,T6821,F,80,17,NA,NA,"До лесной опушек добрели Федя и Митя.",NA,bad,"NA",NA,NA,NA,NA,Any addtional parameters were appended as additional columns
# 27. Whether or not answer was correct (NULL if N/A).
# 28. Time taken to answer..
# 29. Comments.
1651824488,e50605c6abcf1345994486909dca1218,PennController,39,0,filler2,NULL,Controller-AcceptabilityJudgment,AcceptabilityJudgment,NULL,7,1651824486935,T6821,F,80,17,NA,NA,"До лесной опушек добрели Федя и Митя.",NA,bad,"NA",NA,NA,NA,NA,NULL,1088,Any addtional parameters were appended as additional columns
# 27. Comments.
1651824488,e50605c6abcf1345994486909dca1218,PennController,39,0,filler2,NULL,PennController,39,_Trial_,End,1651824487240,T6821,F,80,17,NA,NA,"До лесной опушек добрели Федя и Митя.",NA,bad,"NA",NA,NA,NA,NA,NULL
#
# Results on Fri, 06 May 2022 08:17:56 GMT
# USER AGENT: Mozilla/5.0 (Windows NT 6.1) AppleWebKit/537.36 (KHTML, like Gecko) Chrome/100.0.4896.127 Safari/537.36
# Design number was non-random = 3
#
# Columns below this comment are as follows:
# 1. Results reception time.
# 2. MD5 hash of participant's IP address.
# 3. Controller name.
# 4. Order number of item.
# 5. Inner element number.
# 6. Label.
# 7. Latin Square Group.
# 8. PennElementType.
# 9. PennElementName.
# 10. Parameter.
# 11. Value.
# 12. EventTime.
# 13. ParticipantID.
# 14. Comments.
1651825076,807dfeb74891f32e4278c21f7c3f9308,PennController,1,0,anketa,NULL,PennController,0,_Trial_,Start,1651824846747,I3325,NULL
1651825076,807dfeb74891f32e4278c21f7c3f9308,PennController,1,0,anketa,NULL,TextInput,id_response,Final,FWmMp3,1651824875571,I3325,NULL
1651825076,807dfeb74891f32e4278c21f7c3f9308,PennController,1,0,anketa,NULL,TextInput,age_response,Final,33,1651824875571,I3325,NULL
1651825076,807dfeb74891f32e4278c21f7c3f9308,PennController,1,0,anketa,NULL,TextInput,age_response,First,,1651824852162,I3325,3
1651825076,807dfeb74891f32e4278c21f7c3f9308,PennController,1,0,anketa,NULL,TextInput,gorod1_response,Final,Улан-Удэ,1651824875571,I3325,NULL
1651825076,807dfeb74891f32e4278c21f7c3f9308,PennController,1,0,anketa,NULL,TextInput,gorod1_response,First,,1651824855844,I3325,Shift
1651825076,807dfeb74891f32e4278c21f7c3f9308,PennController,1,0,anketa,NULL,TextInput,gorod2_response,Final,Улан-Удэ,1651824875571,I3325,NULL
1651825076,807dfeb74891f32e4278c21f7c3f9308,PennController,1,0,anketa,NULL,TextInput,gorod2_response,First,,1651824864994,I3325,Control
1651825076,807dfeb74891f32e4278c21f7c3f9308,PennController,1,0,anketa,NULL,TextInput,lang_response,Final,,1651824875571,I3325,NULL
1651825076,807dfeb74891f32e4278c21f7c3f9308,PennController,1,0,anketa,NULL,Scale,gender_response,Choice,мужской,1651824853177,I3325,NULL
1651825076,807dfeb74891f32e4278c21f7c3f9308,PennController,1,0,anketa,NULL,Scale,lang_edu_response,Choice,нет,1651824866775,I3325,NULL
1651825076,807dfeb74891f32e4278c21f7c3f9308,PennController,1,0,anketa,NULL,PennController,0,_Trial_,End,1651824875571,I3325,NULL
# 13. Comments.
1651825076,807dfeb74891f32e4278c21f7c3f9308,PennController,2,0,instruction,NULL,PennController,1,_Trial_,Start,1651824875571,NULL
1651825076,807dfeb74891f32e4278c21f7c3f9308,PennController,2,0,instruction,NULL,Button,start,Click,Click,1651824882940,NULL
1651825076,807dfeb74891f32e4278c21f7c3f9308,PennController,2,0,instruction,NULL,PennController,1,_Trial_,End,1651824882940,NULL
# 13. ParticipantID.
# 14. group.
# 15. sentence_id.
# 16. lexicalization.
# 17. conjuncts_order.
# 18. agreement.
# 19. sentence.
# 20. predicate_type.
# 21. filler_type.
# 22. question.
# 23. answer_1.
# 24. answer_2.
# 25. answer_3.
# 26. correct_answer.
# 27. Comments.
1651825076,807dfeb74891f32e4278c21f7c3f9308,PennController,5,0,training_trials,NULL,PennController,5,_Trial_,Start,1651824882940,I3325,Tr,289,0,NA,NA,"За рабочим процессом следили я и Андрей.",NA,good,"NA",NA,NA,NA,NA,NULL
1651825076,807dfeb74891f32e4278c21f7c3f9308,PennController,5,0,training_trials,NULL,Controller-AcceptabilityJudgment,AcceptabilityJudgment,За рабочим процессом следили я и Андрей.,NULL,1651824887937,I3325,Tr,289,0,NA,NA,"За рабочим процессом следили я и Андрей.",NA,good,"NA",NA,NA,NA,NA,Any addtional parameters were appended as additional columns
# 27. Whether or not answer was correct (NULL if N/A).
# 28. Time taken to answer..
# 29. Comments.
1651825076,807dfeb74891f32e4278c21f7c3f9308,PennController,5,0,training_trials,NULL,Controller-AcceptabilityJudgment,AcceptabilityJudgment,NULL,6,1651824887937,I3325,Tr,289,0,NA,NA,"За рабочим процессом следили я и Андрей.",NA,good,"NA",NA,NA,NA,NA,NULL,3966,Any addtional parameters were appended as additional columns
# 27. Comments.
