#
# Results on Sun, 16 Apr 2023 10:33:44 GMT
# USER AGENT: Mozilla/5.0 (Windows NT 10.0; Win64; x64) AppleWebKit/537.36 (KHTML, like Gecko) Chrome/112.0.0.0 Safari/537.36
# Design number was non-random = 0
#
# Columns below this comment are as follows:
# 1. Results reception time.
# 2. MD5 hash of participant's IP address.
# 3. Controller name.
# 4. Order number of item.
# 5. Inner element number.
# 6. Label.
# 7. Latin Square Group.
# 8. PennElementType.
# 9. PennElementName.
# 10. Parameter.
# 11. Value.
# 12. EventTime.
# 13. ParticipantID.
# 14. Comments.
1681641224,c4251ef203197ef95452e332e061a79a,PennController,1,0,anketa,NULL,PennController,0,_Trial_,Start,1681641048834,Z9398,NULL
1681641224,c4251ef203197ef95452e332e061a79a,PennController,1,0,anketa,NULL,TextInput,id_response,Final,SpvyzQ,1681641091240,Z9398,NULL
1681641224,c4251ef203197ef95452e332e061a79a,PennController,1,0,anketa,NULL,TextInput,age_response,Final,34,1681641091240,Z9398,NULL
1681641224,c4251ef203197ef95452e332e061a79a,PennController,1,0,anketa,NULL,TextInput,age_response,First,,1681641060999,Z9398,3
1681641224,c4251ef203197ef95452e332e061a79a,PennController,1,0,anketa,NULL,TextInput,gorod1_response,Final,Москва,1681641091240,Z9398,NULL
1681641224,c4251ef203197ef95452e332e061a79a,PennController,1,0,anketa,NULL,TextInput,gorod1_response,First,,1681641066134,Z9398,Shift
1681641224,c4251ef203197ef95452e332e061a79a,PennController,1,0,anketa,NULL,TextInput,gorod2_response,Final,Москва,1681641091240,Z9398,NULL
1681641224,c4251ef203197ef95452e332e061a79a,PennController,1,0,anketa,NULL,TextInput,gorod2_response,First,,1681641071366,Z9398,Shift
1681641224,c4251ef203197ef95452e332e061a79a,PennController,1,0,anketa,NULL,TextInput,lang_response,Final,Китайский,1681641091240,Z9398,NULL
1681641224,c4251ef203197ef95452e332e061a79a,PennController,1,0,anketa,NULL,TextInput,lang_response,First,,1681641084382,Z9398,Shift
1681641224,c4251ef203197ef95452e332e061a79a,PennController,1,0,anketa,NULL,Scale,gender_response,Choice,мужской,1681641062502,Z9398,NULL
1681641224,c4251ef203197ef95452e332e061a79a,PennController,1,0,anketa,NULL,Scale,lang_edu_response,Choice,да,1681641079974,Z9398,NULL
1681641224,c4251ef203197ef95452e332e061a79a,PennController,1,0,anketa,NULL,PennController,0,_Trial_,End,1681641091241,Z9398,NULL
# 13. Comments.
1681641224,c4251ef203197ef95452e332e061a79a,PennController,2,0,instruction,NULL,PennController,1,_Trial_,Start,1681641091242,NULL
1681641224,c4251ef203197ef95452e332e061a79a,PennController,2,0,instruction,NULL,Button,start,Click,Click,1681641094654,NULL
1681641224,c4251ef203197ef95452e332e061a79a,PennController,2,0,instruction,NULL,PennController,1,_Trial_,End,1681641094655,NULL
# 13. ParticipantID.
# 14. group.
# 15. sentence_id.
# 16. lexicalization.
# 17. conjuncts_order.
# 18. agreement.
# 19. sentence.
# 20. predicate_type.
# 21. filler_type.
# 22. question.
# 23. answer_1.
# 24. answer_2.
# 25. answer_3.
# 26. correct_answer.
# 27. Comments.
1681641224,c4251ef203197ef95452e332e061a79a,PennController,5,0,training_trials,NULL,PennController,5,_Trial_,Start,1681641094655,Z9398,Tr,289,0,NA,NA,"За рабочим процессом следил ты и Андрей.",NA,good,"NA",NA,NA,NA,NA,NULL
1681641224,c4251ef203197ef95452e332e061a79a,PennController,5,0,training_trials,NULL,Controller-AcceptabilityJudgment,AcceptabilityJudgment,За рабочим процессом следил ты и Андрей.,NULL,1681641099854,Z9398,Tr,289,0,NA,NA,"За рабочим процессом следил ты и Андрей.",NA,good,"NA",NA,NA,NA,NA,Any addtional parameters were appended as additional columns
# 27. Whether or not answer was correct (NULL if N/A).
# 28. Time taken to answer..
# 29. Comments.
1681641224,c4251ef203197ef95452e332e061a79a,PennController,5,0,training_trials,NULL,Controller-AcceptabilityJudgment,AcceptabilityJudgment,NULL,4,1681641099854,Z9398,Tr,289,0,NA,NA,"За рабочим процессом следил ты и Андрей.",NA,good,"NA",NA,NA,NA,NA,NULL,4194,Any addtional parameters were appended as additional columns
# 27. Comments.
1681641224,c4251ef203197ef95452e332e061a79a,PennController,5,0,training_trials,NULL,PennController,5,_Trial_,End,1681641100156,Z9398,Tr,289,0,NA,NA,"За рабочим процессом следил ты и Андрей.",NA,good,"NA",NA,NA,NA,NA,NULL
1681641224,c4251ef203197ef95452e332e061a79a,PennController,6,0,training_trials,NULL,PennController,6,_Trial_,Start,1681641100156,Z9398,Tr,290,0,NA,NA,"В финальном матчах выиграли Вася и Петя.",NA,bad,"NA",NA,NA,NA,NA,NULL
1681641224,c4251ef203197ef95452e332e061a79a,PennController,6,0,training_trials,NULL,Controller-AcceptabilityJudgment,AcceptabilityJudgment,В финальном матчах выиграли Вася и Петя.,NULL,1681641104358,Z9398,Tr,290,0,NA,NA,"В финальном матчах выиграли Вася и Петя.",NA,bad,"NA",NA,NA,NA,NA,Any addtional parameters were appended as additional columns
# 27. Whether or not answer was correct (NULL if N/A).
# 28. Time taken to answer..
# 29. Comments.
1681641224,c4251ef203197ef95452e332e061a79a,PennController,6,0,training_trials,NULL,Controller-AcceptabilityJudgment,AcceptabilityJudgment,NULL,7,1681641104358,Z9398,Tr,290,0,NA,NA,"В финальном матчах выиграли Вася и Петя.",NA,bad,"NA",NA,NA,NA,NA,NULL,3191,Any addtional parameters were appended as additional columns
# 27. Comments.
1681641224,c4251ef203197ef95452e332e061a79a,PennController,6,0,training_trials,NULL,PennController,6,_Trial_,End,1681641104660,Z9398,Tr,290,0,NA,NA,"В финальном матчах выиграли Вася и Петя.",NA,bad,"NA",NA,NA,NA,NA,NULL
1681641224,c4251ef203197ef95452e332e061a79a,PennController,7,0,training_trials,NULL,PennController,7,_Trial_,Start,1681641104660,Z9398,Tr,291,0,NA,NA,"В юридическом колледже преподавали ты и Коля.",NA,good,"NA",NA,NA,NA,NA,NULL
1681641224,c4251ef203197ef95452e332e061a79a,PennController,7,0,training_trials,NULL,Controller-AcceptabilityJudgment,AcceptabilityJudgment,В юридическом колледже преподавали ты и Коля.,NULL,1681641109150,Z9398,Tr,291,0,NA,NA,"В юридическом колледже преподавали ты и Коля.",NA,good,"NA",NA,NA,NA,NA,Any addtional parameters were appended as additional columns
# 27. Whether or not answer was correct (NULL if N/A).
# 28. Time taken to answer..
# 29. Comments.
1681641224,c4251ef203197ef95452e332e061a79a,PennController,7,0,training_trials,NULL,Controller-AcceptabilityJudgment,AcceptabilityJudgment,NULL,1,1681641109150,Z9398,Tr,291,0,NA,NA,"В юридическом колледже преподавали ты и Коля.",NA,good,"NA",NA,NA,NA,NA,NULL,3487,Any addtional parameters were appended as additional columns
# 27. Comments.
1681641224,c4251ef203197ef95452e332e061a79a,PennController,7,0,training_trials,NULL,PennController,7,_Trial_,End,1681641109455,Z9398,Tr,291,0,NA,NA,"В юридическом колледже преподавали ты и Коля.",NA,good,"NA",NA,NA,NA,NA,NULL
# 13. Comments.
1681641224,c4251ef203197ef95452e332e061a79a,PennController,3,0,start,NULL,PennController,2,_Trial_,Start,1681641109455,NULL
1681641224,c4251ef203197ef95452e332e061a79a,PennController,3,0,start,NULL,Button,continue1,Click,Click,1681641111053,NULL
1681641224,c4251ef203197ef95452e332e061a79a,PennController,3,0,start,NULL,PennController,2,_Trial_,End,1681641111054,NULL
# 13. ParticipantID.
# 14. group.
# 15. sentence_id.
# 16. lexicalization.
# 17. conjuncts_order.
# 18. agreement.
# 19. sentence.
# 20. predicate_type.
# 21. filler_type.
# 22. question.
# 23. answer_1.
# 24. answer_2.
# 25. answer_3.
# 26. correct_answer.
# 27. Comments.
1681641224,c4251ef203197ef95452e332e061a79a,PennController,24,0,filler1,NULL,PennController,24,_Trial_,Start,1681641111055,Z9398,F,67,17,NA,NA,"На детском утреннике выступали Володя и Кеша.",NA,good,"NA",NA,NA,NA,NA,NULL
1681641224,c4251ef203197ef95452e332e061a79a,PennController,24,0,filler1,NULL,Controller-AcceptabilityJudgment,AcceptabilityJudgment,На детском утреннике выступали Володя и Кеша.,NULL,1681641115526,Z9398,F,67,17,NA,NA,"На детском утреннике выступали Володя и Кеша.",NA,good,"NA",NA,NA,NA,NA,Any addtional parameters were appended as additional columns
# 27. Whether or not answer was correct (NULL if N/A).
# 28. Time taken to answer..
# 29. Comments.
1681641224,c4251ef203197ef95452e332e061a79a,PennController,24,0,filler1,NULL,Controller-AcceptabilityJudgment,AcceptabilityJudgment,NULL,5,1681641115526,Z9398,F,67,17,NA,NA,"На детском утреннике выступали Володя и Кеша.",NA,good,"NA",NA,NA,NA,NA,NULL,3467,Any addtional parameters were appended as additional columns
# 27. Comments.
1681641224,c4251ef203197ef95452e332e061a79a,PennController,24,0,filler1,NULL,PennController,24,_Trial_,End,1681641115826,Z9398,F,67,17,NA,NA,"На детском утреннике выступали Володя и Кеша.",NA,good,"NA",NA,NA,NA,NA,NULL
1681641224,c4251ef203197ef95452e332e061a79a,PennController,10,0,stimul1,NULL,PennController,10,_Trial_,Start,1681641115827,Z9398,A,11,3,name_pron,sg,"На городском пляже загорал Ваня и ты.",unacc,NA,"NA",NA,NA,NA,NA,NULL
1681641224,c4251ef203197ef95452e332e061a79a,PennController,10,0,stimul1,NULL,Controller-AcceptabilityJudgment,AcceptabilityJudgment,На городском пляже загорал Ваня и ты.,NULL,1681641119606,Z9398,A,11,3,name_pron,sg,"На городском пляже загорал Ваня и ты.",unacc,NA,"NA",NA,NA,NA,NA,Any addtional parameters were appended as additional columns
# 27. Whether or not answer was correct (NULL if N/A).
# 28. Time taken to answer..
# 29. Comments.
1681641224,c4251ef203197ef95452e332e061a79a,PennController,10,0,stimul1,NULL,Controller-AcceptabilityJudgment,AcceptabilityJudgment,NULL,2,1681641119606,Z9398,A,11,3,name_pron,sg,"На городском пляже загорал Ваня и ты.",unacc,NA,"NA",NA,NA,NA,NA,NULL,2775,Any addtional parameters were appended as additional columns
# 27. Comments.
1681641224,c4251ef203197ef95452e332e061a79a,PennController,10,0,stimul1,NULL,PennController,10,_Trial_,End,1681641119909,Z9398,A,11,3,name_pron,sg,"На городском пляже загорал Ваня и ты.",unacc,NA,"NA",NA,NA,NA,NA,NULL
1681641224,c4251ef203197ef95452e332e061a79a,PennController,25,0,filler1,NULL,PennController,25,_Trial_,Start,1681641119910,Z9398,F,73,17,NA,NA,"В густом туманах блуждали Андрей и Коля.",NA,bad,"NA",NA,NA,NA,NA,NULL
1681641224,c4251ef203197ef95452e332e061a79a,PennController,25,0,filler1,NULL,Controller-AcceptabilityJudgment,AcceptabilityJudgment,В густом туманах блуждали Андрей и Коля.,NULL,1681641124382,Z9398,F,73,17,NA,NA,"В густом туманах блуждали Андрей и Коля.",NA,bad,"NA",NA,NA,NA,NA,Any addtional parameters were appended as additional columns
# 27. Whether or not answer was correct (NULL if N/A).
# 28. Time taken to answer..
# 29. Comments.
1681641224,c4251ef203197ef95452e332e061a79a,PennController,25,0,filler1,NULL,Controller-AcceptabilityJudgment,AcceptabilityJudgment,NULL,2,1681641124382,Z9398,F,73,17,NA,NA,"В густом туманах блуждали Андрей и Коля.",NA,bad,"NA",NA,NA,NA,NA,NULL,3461,Any addtional parameters were appended as additional columns
# 27. Comments.
1681641224,c4251ef203197ef95452e332e061a79a,PennController,25,0,filler1,NULL,PennController,25,_Trial_,End,1681641124683,Z9398,F,73,17,NA,NA,"В густом туманах блуждали Андрей и Коля.",NA,bad,"NA",NA,NA,NA,NA,NULL
1681641224,c4251ef203197ef95452e332e061a79a,PennController,14,0,stimul1,NULL,PennController,14,_Trial_,Start,1681641124684,Z9398,A,43,11,name_pron,sg,"На школьной вечеринке танцевал Данила и ты.",unerg,NA,"NA",NA,NA,NA,NA,NULL
1681641224,c4251ef203197ef95452e332e061a79a,PennController,14,0,stimul1,NULL,Controller-AcceptabilityJudgment,AcceptabilityJudgment,На школьной вечеринке танцевал Данила и ты.,NULL,1681641128526,Z9398,A,43,11,name_pron,sg,"На школьной вечеринке танцевал Данила и ты.",unerg,NA,"NA",NA,NA,NA,NA,Any addtional parameters were appended as additional columns
# 27. Whether or not answer was correct (NULL if N/A).
# 28. Time taken to answer..
# 29. Comments.
1681641224,c4251ef203197ef95452e332e061a79a,PennController,14,0,stimul1,NULL,Controller-AcceptabilityJudgment,AcceptabilityJudgment,NULL,3,1681641128526,Z9398,A,43,11,name_pron,sg,"На школьной вечеринке танцевал Данила и ты.",unerg,NA,"NA",NA,NA,NA,NA,NULL,2837,Any addtional parameters were appended as additional columns
# 27. Comments.
1681641224,c4251ef203197ef95452e332e061a79a,PennController,14,0,stimul1,NULL,PennController,14,_Trial_,End,1681641128829,Z9398,A,43,11,name_pron,sg,"На школьной вечеринке танцевал Данила и ты.",unerg,NA,"NA",NA,NA,NA,NA,NULL
1681641224,c4251ef203197ef95452e332e061a79a,PennController,26,0,filler1,NULL,PennController,26,_Trial_,Start,1681641128830,Z9398,F,68,17,NA,NA,"На званом вечере присутствовали Кирилл и Федя.",NA,good,"NA",NA,NA,NA,NA,NULL
1681641224,c4251ef203197ef95452e332e061a79a,PennController,26,0,filler1,NULL,Controller-AcceptabilityJudgment,AcceptabilityJudgment,На званом вечере присутствовали Кирилл и Федя.,NULL,1681641130414,Z9398,F,68,17,NA,NA,"На званом вечере присутствовали Кирилл и Федя.",NA,good,"NA",NA,NA,NA,NA,Any addtional parameters were appended as additional columns
# 27. Whether or not answer was correct (NULL if N/A).
# 28. Time taken to answer..
# 29. Comments.
1681641224,c4251ef203197ef95452e332e061a79a,PennController,26,0,filler1,NULL,Controller-AcceptabilityJudgment,AcceptabilityJudgment,NULL,6,1681641130414,Z9398,F,68,17,NA,NA,"На званом вечере присутствовали Кирилл и Федя.",NA,good,"NA",NA,NA,NA,NA,NULL,582,Any addtional parameters were appended as additional columns
# 27. Comments.
1681641224,c4251ef203197ef95452e332e061a79a,PennController,26,0,filler1,NULL,PennController,26,_Trial_,End,1681641130715,Z9398,F,68,17,NA,NA,"На званом вечере присутствовали Кирилл и Федя.",NA,good,"NA",NA,NA,NA,NA,NULL
1681641224,c4251ef203197ef95452e332e061a79a,PennController,13,0,stimul1,NULL,PennController,13,_Trial_,Start,1681641130716,Z9398,A,40,10,name_pron,pl,"На областном конкурсе пели Витя и ты.",unerg,NA,"NA",NA,NA,NA,NA,NULL
1681641224,c4251ef203197ef95452e332e061a79a,PennController,13,0,stimul1,NULL,Controller-AcceptabilityJudgment,AcceptabilityJudgment,На областном конкурсе пели Витя и ты.,NULL,1681641132430,Z9398,A,40,10,name_pron,pl,"На областном конкурсе пели Витя и ты.",unerg,NA,"NA",NA,NA,NA,NA,Any addtional parameters were appended as additional columns
# 27. Whether or not answer was correct (NULL if N/A).
# 28. Time taken to answer..
# 29. Comments.
1681641224,c4251ef203197ef95452e332e061a79a,PennController,13,0,stimul1,NULL,Controller-AcceptabilityJudgment,AcceptabilityJudgment,NULL,1,1681641132430,Z9398,A,40,10,name_pron,pl,"На областном конкурсе пели Витя и ты.",unerg,NA,"NA",NA,NA,NA,NA,NULL,709,Any addtional parameters were appended as additional columns
# 27. Comments.
1681641224,c4251ef203197ef95452e332e061a79a,PennController,13,0,stimul1,NULL,PennController,13,_Trial_,End,1681641132734,Z9398,A,40,10,name_pron,pl,"На областном конкурсе пели Витя и ты.",unerg,NA,"NA",NA,NA,NA,NA,NULL
1681641224,c4251ef203197ef95452e332e061a79a,PennController,27,0,filler1,NULL,PennController,27,_Trial_,Start,1681641132735,Z9398,F,74,17,NA,NA,"В правом углах шептали Кеша и Егор.",NA,bad,"NA",NA,NA,NA,NA,NULL
1681641224,c4251ef203197ef95452e332e061a79a,PennController,27,0,filler1,NULL,Controller-AcceptabilityJudgment,AcceptabilityJudgment,В правом углах шептали Кеша и Егор.,NULL,1681641133918,Z9398,F,74,17,NA,NA,"В правом углах шептали Кеша и Егор.",NA,bad,"NA",NA,NA,NA,NA,Any addtional parameters were appended as additional columns
# 27. Whether or not answer was correct (NULL if N/A).
# 28. Time taken to answer..
# 29. Comments.
1681641224,c4251ef203197ef95452e332e061a79a,PennController,27,0,filler1,NULL,Controller-AcceptabilityJudgment,AcceptabilityJudgment,NULL,4,1681641133918,Z9398,F,74,17,NA,NA,"В правом углах шептали Кеша и Егор.",NA,bad,"NA",NA,NA,NA,NA,NULL,181,Any addtional parameters were appended as additional columns
# 27. Comments.
1681641224,c4251ef203197ef95452e332e061a79a,PennController,27,0,filler1,NULL,PennController,27,_Trial_,End,1681641134220,Z9398,F,74,17,NA,NA,"В правом углах шептали Кеша и Егор.",NA,bad,"NA",NA,NA,NA,NA,NULL
1681641224,c4251ef203197ef95452e332e061a79a,PennController,11,0,stimul1,NULL,PennController,11,_Trial_,Start,1681641134220,Z9398,A,14,4,pron_name,pl,"В инфекционной больнице лежали ты и Миша.",unacc,NA,"NA",NA,NA,NA,NA,NULL
1681641224,c4251ef203197ef95452e332e061a79a,PennController,11,0,stimul1,NULL,Controller-AcceptabilityJudgment,AcceptabilityJudgment,В инфекционной больнице лежали ты и Миша.,NULL,1681641135534,Z9398,A,14,4,pron_name,pl,"В инфекционной больнице лежали ты и Миша.",unacc,NA,"NA",NA,NA,NA,NA,Any addtional parameters were appended as additional columns
# 27. Whether or not answer was correct (NULL if N/A).
# 28. Time taken to answer..
# 29. Comments.
1681641224,c4251ef203197ef95452e332e061a79a,PennController,11,0,stimul1,NULL,Controller-AcceptabilityJudgment,AcceptabilityJudgment,NULL,2,1681641135534,Z9398,A,14,4,pron_name,pl,"В инфекционной больнице лежали ты и Миша.",unacc,NA,"NA",NA,NA,NA,NA,NULL,303,Any addtional parameters were appended as additional columns
# 27. Comments.
1681641224,c4251ef203197ef95452e332e061a79a,PennController,11,0,stimul1,NULL,PennController,11,_Trial_,End,1681641135837,Z9398,A,14,4,pron_name,pl,"В инфекционной больнице лежали ты и Миша.",unacc,NA,"NA",NA,NA,NA,NA,NULL
1681641224,c4251ef203197ef95452e332e061a79a,PennController,28,0,filler1,NULL,PennController,28,_Trial_,Start,1681641135838,Z9398,F,65,17,NA,NA,"В шахматном турнире участвовали Петя и Вася.",NA,good,"Где участвовали Петя и Вася?",в автомобильных гонках,во всероссийском конкурсе,в шахматном турнире,в шахматном турнире,NULL
1681641224,c4251ef203197ef95452e332e061a79a,PennController,28,0,filler1,NULL,Controller-AcceptabilityJudgment,AcceptabilityJudgment,В шахматном турнире участвовали Петя и Вася.,NULL,1681641138422,Z9398,F,65,17,NA,NA,"В шахматном турнире участвовали Петя и Вася.",NA,good,"Где участвовали Петя и Вася?",в автомобильных гонках,во всероссийском конкурсе,в шахматном турнире,в шахматном турнире,Any addtional parameters were appended as additional columns
# 27. Whether or not answer was correct (NULL if N/A).
# 28. Time taken to answer..
# 29. Comments.
1681641224,c4251ef203197ef95452e332e061a79a,PennController,28,0,filler1,NULL,Controller-AcceptabilityJudgment,AcceptabilityJudgment,NULL,5,1681641138422,Z9398,F,65,17,NA,NA,"В шахматном турнире участвовали Петя и Вася.",NA,good,"Где участвовали Петя и Вася?",в автомобильных гонках,во всероссийском конкурсе,в шахматном турнире,в шахматном турнире,NULL,1582,Any addtional parameters were appended as additional columns
1681641224,c4251ef203197ef95452e332e061a79a,PennController,28,0,filler1,NULL,Controller-Question,Question,Где участвовали Петя и Вася?,во всероссийском конкурсе,1681641143966,Z9398,F,65,17,NA,NA,"В шахматном турнире участвовали Петя и Вася.",NA,good,"Где участвовали Петя и Вася?",в автомобильных гонках,во всероссийском конкурсе,в шахматном турнире,в шахматном турнире,0,5243,Any addtional parameters were appended as additional columns
# 27. Comments.
1681641224,c4251ef203197ef95452e332e061a79a,PennController,28,0,filler1,NULL,PennController,28,_Trial_,End,1681641143967,Z9398,F,65,17,NA,NA,"В шахматном турнире участвовали Петя и Вася.",NA,good,"Где участвовали Петя и Вася?",в автомобильных гонках,во всероссийском конкурсе,в шахматном турнире,в шахматном турнире,NULL
1681641224,c4251ef203197ef95452e332e061a79a,PennController,8,0,stimul1,NULL,PennController,8,_Trial_,Start,1681641143967,Z9398,A,1,1,pron_name,sg,"В двухместной палатке спал ты и Вася.",unacc,NA,"NA",NA,NA,NA,NA,NULL
1681641224,c4251ef203197ef95452e332e061a79a,PennController,8,0,stimul1,NULL,Controller-AcceptabilityJudgment,AcceptabilityJudgment,В двухместной палатке спал ты и Вася.,NULL,1681641145134,Z9398,A,1,1,pron_name,sg,"В двухместной палатке спал ты и Вася.",unacc,NA,"NA",NA,NA,NA,NA,Any addtional parameters were appended as additional columns
# 27. Whether or not answer was correct (NULL if N/A).
# 28. Time taken to answer..
# 29. Comments.
1681641224,c4251ef203197ef95452e332e061a79a,PennController,8,0,stimul1,NULL,Controller-AcceptabilityJudgment,AcceptabilityJudgment,NULL,4,1681641145134,Z9398,A,1,1,pron_name,sg,"В двухместной палатке спал ты и Вася.",unacc,NA,"NA",NA,NA,NA,NA,NULL,165,Any addtional parameters were appended as additional columns
# 27. Comments.
1681641224,c4251ef203197ef95452e332e061a79a,PennController,8,0,stimul1,NULL,PennController,8,_Trial_,End,1681641145436,Z9398,A,1,1,pron_name,sg,"В двухместной палатке спал ты и Вася.",unacc,NA,"NA",NA,NA,NA,NA,NULL
1681641224,c4251ef203197ef95452e332e061a79a,PennController,29,0,filler1,NULL,PennController,29,_Trial_,Start,1681641145437,Z9398,F,75,17,NA,NA,"В соседнюю страны путешествовали Лёва и Федя.",NA,bad,"NA",NA,NA,NA,NA,NULL
1681641224,c4251ef203197ef95452e332e061a79a,PennController,29,0,filler1,NULL,Controller-AcceptabilityJudgment,AcceptabilityJudgment,В соседнюю страны путешествовали Лёва и Федя.,NULL,1681641147078,Z9398,F,75,17,NA,NA,"В соседнюю страны путешествовали Лёва и Федя.",NA,bad,"NA",NA,NA,NA,NA,Any addtional parameters were appended as additional columns
# 27. Whether or not answer was correct (NULL if N/A).
# 28. Time taken to answer..
# 29. Comments.
1681641224,c4251ef203197ef95452e332e061a79a,PennController,29,0,filler1,NULL,Controller-AcceptabilityJudgment,AcceptabilityJudgment,NULL,6,1681641147078,Z9398,F,75,17,NA,NA,"В соседнюю страны путешествовали Лёва и Федя.",NA,bad,"NA",NA,NA,NA,NA,NULL,624,Any addtional parameters were appended as additional columns
# 27. Comments.
1681641224,c4251ef203197ef95452e332e061a79a,PennController,29,0,filler1,NULL,PennController,29,_Trial_,End,1681641147378,Z9398,F,75,17,NA,NA,"В соседнюю страны путешествовали Лёва и Федя.",NA,bad,"NA",NA,NA,NA,NA,NULL
1681641224,c4251ef203197ef95452e332e061a79a,PennController,9,0,stimul1,NULL,PennController,9,_Trial_,Start,1681641147379,Z9398,A,8,2,name_pron,pl,"В районном центре жили Петя и ты.",unacc,NA,"NA",NA,NA,NA,NA,NULL
1681641224,c4251ef203197ef95452e332e061a79a,PennController,9,0,stimul1,NULL,Controller-AcceptabilityJudgment,AcceptabilityJudgment,В районном центре жили Петя и ты.,NULL,1681641148662,Z9398,A,8,2,name_pron,pl,"В районном центре жили Петя и ты.",unacc,NA,"NA",NA,NA,NA,NA,Any addtional parameters were appended as additional columns
# 27. Whether or not answer was correct (NULL if N/A).
# 28. Time taken to answer..
# 29. Comments.
1681641224,c4251ef203197ef95452e332e061a79a,PennController,9,0,stimul1,NULL,Controller-AcceptabilityJudgment,AcceptabilityJudgment,NULL,2,1681641148662,Z9398,A,8,2,name_pron,pl,"В районном центре жили Петя и ты.",unacc,NA,"NA",NA,NA,NA,NA,NULL,279,Any addtional parameters were appended as additional columns
# 27. Comments.
1681641224,c4251ef203197ef95452e332e061a79a,PennController,9,0,stimul1,NULL,PennController,9,_Trial_,End,1681641148966,Z9398,A,8,2,name_pron,pl,"В районном центре жили Петя и ты.",unacc,NA,"NA",NA,NA,NA,NA,NULL
1681641224,c4251ef203197ef95452e332e061a79a,PennController,30,0,filler1,NULL,PennController,30,_Trial_,Start,1681641148966,Z9398,F,69,17,NA,NA,"В волонтёрском центре помогали Гриша и Слава.",NA,good,"NA",NA,NA,NA,NA,NULL
1681641224,c4251ef203197ef95452e332e061a79a,PennController,30,0,filler1,NULL,Controller-AcceptabilityJudgment,AcceptabilityJudgment,В волонтёрском центре помогали Гриша и Слава.,NULL,1681641150134,Z9398,F,69,17,NA,NA,"В волонтёрском центре помогали Гриша и Слава.",NA,good,"NA",NA,NA,NA,NA,Any addtional parameters were appended as additional columns
# 27. Whether or not answer was correct (NULL if N/A).
# 28. Time taken to answer..
# 29. Comments.
1681641224,c4251ef203197ef95452e332e061a79a,PennController,30,0,filler1,NULL,Controller-AcceptabilityJudgment,AcceptabilityJudgment,NULL,4,1681641150134,Z9398,F,69,17,NA,NA,"В волонтёрском центре помогали Гриша и Слава.",NA,good,"NA",NA,NA,NA,NA,NULL,157,Any addtional parameters were appended as additional columns
# 27. Comments.
1681641224,c4251ef203197ef95452e332e061a79a,PennController,30,0,filler1,NULL,PennController,30,_Trial_,End,1681641150435,Z9398,F,69,17,NA,NA,"В волонтёрском центре помогали Гриша и Слава.",NA,good,"NA",NA,NA,NA,NA,NULL
1681641224,c4251ef203197ef95452e332e061a79a,PennController,15,0,stimul1,NULL,PennController,15,_Trial_,Start,1681641150436,Z9398,A,46,12,pron_name,pl,"На пишущей машинке печатали ты и Митя.",unerg,NA,"NA",NA,NA,NA,NA,NULL
1681641224,c4251ef203197ef95452e332e061a79a,PennController,15,0,stimul1,NULL,Controller-AcceptabilityJudgment,AcceptabilityJudgment,На пишущей машинке печатали ты и Митя.,NULL,1681641153254,Z9398,A,46,12,pron_name,pl,"На пишущей машинке печатали ты и Митя.",unerg,NA,"NA",NA,NA,NA,NA,Any addtional parameters were appended as additional columns
# 27. Whether or not answer was correct (NULL if N/A).
# 28. Time taken to answer..
# 29. Comments.
1681641224,c4251ef203197ef95452e332e061a79a,PennController,15,0,stimul1,NULL,Controller-AcceptabilityJudgment,AcceptabilityJudgment,NULL,7,1681641153254,Z9398,A,46,12,pron_name,pl,"На пишущей машинке печатали ты и Митя.",unerg,NA,"NA",NA,NA,NA,NA,NULL,1814,Any addtional parameters were appended as additional columns
# 27. Comments.
1681641224,c4251ef203197ef95452e332e061a79a,PennController,15,0,stimul1,NULL,PennController,15,_Trial_,End,1681641153558,Z9398,A,46,12,pron_name,pl,"На пишущей машинке печатали ты и Митя.",unerg,NA,"NA",NA,NA,NA,NA,NULL
1681641224,c4251ef203197ef95452e332e061a79a,PennController,31,0,filler1,NULL,PennController,31,_Trial_,Start,1681641153559,Z9398,F,76,17,NA,NA,"На шумной улицах разговаривали Максим и Гена.",NA,bad,"NA",NA,NA,NA,NA,NULL
1681641224,c4251ef203197ef95452e332e061a79a,PennController,31,0,filler1,NULL,Controller-AcceptabilityJudgment,AcceptabilityJudgment,На шумной улицах разговаривали Максим и Гена.,NULL,1681641156726,Z9398,F,76,17,NA,NA,"На шумной улицах разговаривали Максим и Гена.",NA,bad,"NA",NA,NA,NA,NA,Any addtional parameters were appended as additional columns
# 27. Whether or not answer was correct (NULL if N/A).
# 28. Time taken to answer..
# 29. Comments.
1681641224,c4251ef203197ef95452e332e061a79a,PennController,31,0,filler1,NULL,Controller-AcceptabilityJudgment,AcceptabilityJudgment,NULL,2,1681641156726,Z9398,F,76,17,NA,NA,"На шумной улицах разговаривали Максим и Гена.",NA,bad,"NA",NA,NA,NA,NA,NULL,2165,Any addtional parameters were appended as additional columns
# 27. Comments.
1681641224,c4251ef203197ef95452e332e061a79a,PennController,31,0,filler1,NULL,PennController,31,_Trial_,End,1681641157029,Z9398,F,76,17,NA,NA,"На шумной улицах разговаривали Максим и Гена.",NA,bad,"NA",NA,NA,NA,NA,NULL
1681641224,c4251ef203197ef95452e332e061a79a,PennController,12,0,stimul1,NULL,PennController,12,_Trial_,Start,1681641157030,Z9398,A,33,9,pron_name,sg,"На дачном участке копал ты и Илья.",unerg,NA,"NA",NA,NA,NA,NA,NULL
1681641224,c4251ef203197ef95452e332e061a79a,PennController,12,0,stimul1,NULL,Controller-AcceptabilityJudgment,AcceptabilityJudgment,На дачном участке копал ты и Илья.,NULL,1681641159574,Z9398,A,33,9,pron_name,sg,"На дачном участке копал ты и Илья.",unerg,NA,"NA",NA,NA,NA,NA,Any addtional parameters were appended as additional columns
# 27. Whether or not answer was correct (NULL if N/A).
# 28. Time taken to answer..
# 29. Comments.
1681641224,c4251ef203197ef95452e332e061a79a,PennController,12,0,stimul1,NULL,Controller-AcceptabilityJudgment,AcceptabilityJudgment,NULL,5,1681641159574,Z9398,A,33,9,pron_name,sg,"На дачном участке копал ты и Илья.",unerg,NA,"NA",NA,NA,NA,NA,NULL,1534,Any addtional parameters were appended as additional columns
# 27. Comments.
1681641224,c4251ef203197ef95452e332e061a79a,PennController,12,0,stimul1,NULL,PennController,12,_Trial_,End,1681641159878,Z9398,A,33,9,pron_name,sg,"На дачном участке копал ты и Илья.",unerg,NA,"NA",NA,NA,NA,NA,NULL
# 13. Comments.
1681641224,c4251ef203197ef95452e332e061a79a,PennController,4,0,break,NULL,PennController,3,_Trial_,Start,1681641159879,NULL
1681641224,c4251ef203197ef95452e332e061a79a,PennController,4,0,break,NULL,Button,continue2,Click,Click,1681641161767,NULL
1681641224,c4251ef203197ef95452e332e061a79a,PennController,4,0,break,NULL,PennController,3,_Trial_,End,1681641161767,NULL
# 13. ParticipantID.
# 14. group.
# 15. sentence_id.
# 16. lexicalization.
# 17. conjuncts_order.
# 18. agreement.
# 19. sentence.
# 20. predicate_type.
# 21. filler_type.
# 22. question.
# 23. answer_1.
# 24. answer_2.
# 25. answer_3.
# 26. correct_answer.
# 27. Comments.
1681641224,c4251ef203197ef95452e332e061a79a,PennController,32,0,filler2,NULL,PennController,32,_Trial_,Start,1681641161767,Z9398,F,70,17,NA,NA,"В холодную воду прыгали Лёва и Денис.",NA,good,"NA",NA,NA,NA,NA,NULL
1681641224,c4251ef203197ef95452e332e061a79a,PennController,32,0,filler2,NULL,Controller-AcceptabilityJudgment,AcceptabilityJudgment,В холодную воду прыгали Лёва и Денис.,NULL,1681641164558,Z9398,F,70,17,NA,NA,"В холодную воду прыгали Лёва и Денис.",NA,good,"NA",NA,NA,NA,NA,Any addtional parameters were appended as additional columns
# 27. Whether or not answer was correct (NULL if N/A).
# 28. Time taken to answer..
# 29. Comments.
1681641224,c4251ef203197ef95452e332e061a79a,PennController,32,0,filler2,NULL,Controller-AcceptabilityJudgment,AcceptabilityJudgment,NULL,6,1681641164558,Z9398,F,70,17,NA,NA,"В холодную воду прыгали Лёва и Денис.",NA,good,"NA",NA,NA,NA,NA,NULL,1788,Any addtional parameters were appended as additional columns
# 27. Comments.
1681641224,c4251ef203197ef95452e332e061a79a,PennController,32,0,filler2,NULL,PennController,32,_Trial_,End,1681641164862,Z9398,F,70,17,NA,NA,"В холодную воду прыгали Лёва и Денис.",NA,good,"NA",NA,NA,NA,NA,NULL
1681641224,c4251ef203197ef95452e332e061a79a,PennController,17,0,stimul2,NULL,PennController,17,_Trial_,Start,1681641164862,Z9398,A,24,6,name_pron,pl,"В педагогический университет поступали Паша и ты.",unacc,NA,"NA",NA,NA,NA,NA,NULL
1681641224,c4251ef203197ef95452e332e061a79a,PennController,17,0,stimul2,NULL,Controller-AcceptabilityJudgment,AcceptabilityJudgment,В педагогический университет поступали Паша и ты.,NULL,1681641168214,Z9398,A,24,6,name_pron,pl,"В педагогический университет поступали Паша и ты.",unacc,NA,"NA",NA,NA,NA,NA,Any addtional parameters were appended as additional columns
# 27. Whether or not answer was correct (NULL if N/A).
# 28. Time taken to answer..
# 29. Comments.
1681641224,c4251ef203197ef95452e332e061a79a,PennController,17,0,stimul2,NULL,Controller-AcceptabilityJudgment,AcceptabilityJudgment,NULL,2,1681641168214,Z9398,A,24,6,name_pron,pl,"В педагогический университет поступали Паша и ты.",unacc,NA,"NA",NA,NA,NA,NA,NULL,2349,Any addtional parameters were appended as additional columns
# 27. Comments.
1681641224,c4251ef203197ef95452e332e061a79a,PennController,17,0,stimul2,NULL,PennController,17,_Trial_,End,1681641168516,Z9398,A,24,6,name_pron,pl,"В педагогический университет поступали Паша и ты.",unacc,NA,"NA",NA,NA,NA,NA,NULL
1681641224,c4251ef203197ef95452e332e061a79a,PennController,33,0,filler2,NULL,PennController,33,_Trial_,Start,1681641168517,Z9398,F,77,17,NA,NA,"В крытый бассейны ныряли Вова и Серёжа.",NA,bad,"NA",NA,NA,NA,NA,NULL
1681641224,c4251ef203197ef95452e332e061a79a,PennController,33,0,filler2,NULL,Controller-AcceptabilityJudgment,AcceptabilityJudgment,В крытый бассейны ныряли Вова и Серёжа.,NULL,1681641171439,Z9398,F,77,17,NA,NA,"В крытый бассейны ныряли Вова и Серёжа.",NA,bad,"NA",NA,NA,NA,NA,Any addtional parameters were appended as additional columns
# 27. Whether or not answer was correct (NULL if N/A).
# 28. Time taken to answer..
# 29. Comments.
1681641224,c4251ef203197ef95452e332e061a79a,PennController,33,0,filler2,NULL,Controller-AcceptabilityJudgment,AcceptabilityJudgment,NULL,3,1681641171439,Z9398,F,77,17,NA,NA,"В крытый бассейны ныряли Вова и Серёжа.",NA,bad,"NA",NA,NA,NA,NA,NULL,1920,Any addtional parameters were appended as additional columns
# 27. Comments.
1681641224,c4251ef203197ef95452e332e061a79a,PennController,33,0,filler2,NULL,PennController,33,_Trial_,End,1681641171743,Z9398,F,77,17,NA,NA,"В крытый бассейны ныряли Вова и Серёжа.",NA,bad,"NA",NA,NA,NA,NA,NULL
1681641224,c4251ef203197ef95452e332e061a79a,PennController,18,0,stimul2,NULL,PennController,18,_Trial_,Start,1681641171744,Z9398,A,27,7,name_pron,sg,"На футбольных воротах стоял Влад и ты.",unacc,NA,"NA",NA,NA,NA,NA,NULL
1681641224,c4251ef203197ef95452e332e061a79a,PennController,18,0,stimul2,NULL,Controller-AcceptabilityJudgment,AcceptabilityJudgment,На футбольных воротах стоял Влад и ты.,NULL,1681641174414,Z9398,A,27,7,name_pron,sg,"На футбольных воротах стоял Влад и ты.",unacc,NA,"NA",NA,NA,NA,NA,Any addtional parameters were appended as additional columns
# 27. Whether or not answer was correct (NULL if N/A).
# 28. Time taken to answer..
# 29. Comments.
1681641224,c4251ef203197ef95452e332e061a79a,PennController,18,0,stimul2,NULL,Controller-AcceptabilityJudgment,AcceptabilityJudgment,NULL,6,1681641174414,Z9398,A,27,7,name_pron,sg,"На футбольных воротах стоял Влад и ты.",unacc,NA,"NA",NA,NA,NA,NA,NULL,1667,Any addtional parameters were appended as additional columns
# 27. Comments.
1681641224,c4251ef203197ef95452e332e061a79a,PennController,18,0,stimul2,NULL,PennController,18,_Trial_,End,1681641174716,Z9398,A,27,7,name_pron,sg,"На футбольных воротах стоял Влад и ты.",unacc,NA,"NA",NA,NA,NA,NA,NULL
1681641224,c4251ef203197ef95452e332e061a79a,PennController,34,0,filler2,NULL,PennController,34,_Trial_,Start,1681641174717,Z9398,F,71,17,NA,NA,"В билетной кассе платили Лёша и Вася.",NA,good,"NA",NA,NA,NA,NA,NULL
1681641224,c4251ef203197ef95452e332e061a79a,PennController,34,0,filler2,NULL,Controller-AcceptabilityJudgment,AcceptabilityJudgment,В билетной кассе платили Лёша и Вася.,NULL,1681641176558,Z9398,F,71,17,NA,NA,"В билетной кассе платили Лёша и Вася.",NA,good,"NA",NA,NA,NA,NA,Any addtional parameters were appended as additional columns
# 27. Whether or not answer was correct (NULL if N/A).
# 28. Time taken to answer..
# 29. Comments.
1681641224,c4251ef203197ef95452e332e061a79a,PennController,34,0,filler2,NULL,Controller-AcceptabilityJudgment,AcceptabilityJudgment,NULL,2,1681641176558,Z9398,F,71,17,NA,NA,"В билетной кассе платили Лёша и Вася.",NA,good,"NA",NA,NA,NA,NA,NULL,839,Any addtional parameters were appended as additional columns
# 27. Comments.
1681641224,c4251ef203197ef95452e332e061a79a,PennController,34,0,filler2,NULL,PennController,34,_Trial_,End,1681641176862,Z9398,F,71,17,NA,NA,"В билетной кассе платили Лёша и Вася.",NA,good,"NA",NA,NA,NA,NA,NULL
1681641224,c4251ef203197ef95452e332e061a79a,PennController,19,0,stimul2,NULL,PennController,19,_Trial_,Start,1681641176863,Z9398,A,30,8,pron_name,pl,"На вечерние занятия приходили ты и Володя.",unacc,NA,"NA",NA,NA,NA,NA,NULL
1681641224,c4251ef203197ef95452e332e061a79a,PennController,19,0,stimul2,NULL,Controller-AcceptabilityJudgment,AcceptabilityJudgment,На вечерние занятия приходили ты и Володя.,NULL,1681641178606,Z9398,A,30,8,pron_name,pl,"На вечерние занятия приходили ты и Володя.",unacc,NA,"NA",NA,NA,NA,NA,Any addtional parameters were appended as additional columns
# 27. Whether or not answer was correct (NULL if N/A).
# 28. Time taken to answer..
# 29. Comments.
1681641224,c4251ef203197ef95452e332e061a79a,PennController,19,0,stimul2,NULL,Controller-AcceptabilityJudgment,AcceptabilityJudgment,NULL,4,1681641178606,Z9398,A,30,8,pron_name,pl,"На вечерние занятия приходили ты и Володя.",unacc,NA,"NA",NA,NA,NA,NA,NULL,741,Any addtional parameters were appended as additional columns
# 27. Comments.
1681641224,c4251ef203197ef95452e332e061a79a,PennController,19,0,stimul2,NULL,PennController,19,_Trial_,End,1681641178909,Z9398,A,30,8,pron_name,pl,"На вечерние занятия приходили ты и Володя.",unacc,NA,"NA",NA,NA,NA,NA,NULL
1681641224,c4251ef203197ef95452e332e061a79a,PennController,35,0,filler2,NULL,PennController,35,_Trial_,Start,1681641178910,Z9398,F,78,17,NA,NA,"В грязной прихожих пылесосили Артём и Дима.",NA,bad,"NA",NA,NA,NA,NA,NULL
1681641224,c4251ef203197ef95452e332e061a79a,PennController,35,0,filler2,NULL,Controller-AcceptabilityJudgment,AcceptabilityJudgment,В грязной прихожих пылесосили Артём и Дима.,NULL,1681641182278,Z9398,F,78,17,NA,NA,"В грязной прихожих пылесосили Артём и Дима.",NA,bad,"NA",NA,NA,NA,NA,Any addtional parameters were appended as additional columns
# 27. Whether or not answer was correct (NULL if N/A).
# 28. Time taken to answer..
# 29. Comments.
1681641224,c4251ef203197ef95452e332e061a79a,PennController,35,0,filler2,NULL,Controller-AcceptabilityJudgment,AcceptabilityJudgment,NULL,7,1681641182278,Z9398,F,78,17,NA,NA,"В грязной прихожих пылесосили Артём и Дима.",NA,bad,"NA",NA,NA,NA,NA,NULL,2366,Any addtional parameters were appended as additional columns
# 27. Comments.
1681641224,c4251ef203197ef95452e332e061a79a,PennController,35,0,filler2,NULL,PennController,35,_Trial_,End,1681641182581,Z9398,F,78,17,NA,NA,"В грязной прихожих пылесосили Артём и Дима.",NA,bad,"NA",NA,NA,NA,NA,NULL
1681641224,c4251ef203197ef95452e332e061a79a,PennController,22,0,stimul2,NULL,PennController,22,_Trial_,Start,1681641182582,Z9398,A,59,15,name_pron,sg,"На детской площадке играл Андрей и ты.",unerg,NA,"NA",NA,NA,NA,NA,NULL
1681641224,c4251ef203197ef95452e332e061a79a,PennController,22,0,stimul2,NULL,Controller-AcceptabilityJudgment,AcceptabilityJudgment,На детской площадке играл Андрей и ты.,NULL,1681641184862,Z9398,A,59,15,name_pron,sg,"На детской площадке играл Андрей и ты.",unerg,NA,"NA",NA,NA,NA,NA,Any addtional parameters were appended as additional columns
# 27. Whether or not answer was correct (NULL if N/A).
# 28. Time taken to answer..
# 29. Comments.
1681641224,c4251ef203197ef95452e332e061a79a,PennController,22,0,stimul2,NULL,Controller-AcceptabilityJudgment,AcceptabilityJudgment,NULL,2,1681641184862,Z9398,A,59,15,name_pron,sg,"На детской площадке играл Андрей и ты.",unerg,NA,"NA",NA,NA,NA,NA,NULL,1279,Any addtional parameters were appended as additional columns
# 27. Comments.
1681641224,c4251ef203197ef95452e332e061a79a,PennController,22,0,stimul2,NULL,PennController,22,_Trial_,End,1681641185166,Z9398,A,59,15,name_pron,sg,"На детской площадке играл Андрей и ты.",unerg,NA,"NA",NA,NA,NA,NA,NULL
1681641224,c4251ef203197ef95452e332e061a79a,PennController,36,0,filler2,NULL,PennController,36,_Trial_,Start,1681641185166,Z9398,F,66,17,NA,NA,"В мужской раздевалке болтали Ваня и Коля.",NA,good,"Где болтали Ваня и Коля?",в мужской раздевалке,в пустом классе,в шумном переулке,в мужской раздевалке,NULL
1681641224,c4251ef203197ef95452e332e061a79a,PennController,36,0,filler2,NULL,Controller-AcceptabilityJudgment,AcceptabilityJudgment,В мужской раздевалке болтали Ваня и Коля.,NULL,1681641188862,Z9398,F,66,17,NA,NA,"В мужской раздевалке болтали Ваня и Коля.",NA,good,"Где болтали Ваня и Коля?",в мужской раздевалке,в пустом классе,в шумном переулке,в мужской раздевалке,Any addtional parameters were appended as additional columns
# 27. Whether or not answer was correct (NULL if N/A).
# 28. Time taken to answer..
# 29. Comments.
1681641224,c4251ef203197ef95452e332e061a79a,PennController,36,0,filler2,NULL,Controller-AcceptabilityJudgment,AcceptabilityJudgment,NULL,3,1681641188862,Z9398,F,66,17,NA,NA,"В мужской раздевалке болтали Ваня и Коля.",NA,good,"Где болтали Ваня и Коля?",в мужской раздевалке,в пустом классе,в шумном переулке,в мужской раздевалке,NULL,2693,Any addtional parameters were appended as additional columns
1681641224,c4251ef203197ef95452e332e061a79a,PennController,36,0,filler2,NULL,Controller-Question,Question,Где болтали Ваня и Коля?,в мужской раздевалке,1681641190766,Z9398,F,66,17,NA,NA,"В мужской раздевалке болтали Ваня и Коля.",NA,good,"Где болтали Ваня и Коля?",в мужской раздевалке,в пустом классе,в шумном переулке,в мужской раздевалке,1,1598,Any addtional parameters were appended as additional columns
# 27. Comments.
1681641224,c4251ef203197ef95452e332e061a79a,PennController,36,0,filler2,NULL,PennController,36,_Trial_,End,1681641190767,Z9398,F,66,17,NA,NA,"В мужской раздевалке болтали Ваня и Коля.",NA,good,"Где болтали Ваня и Коля?",в мужской раздевалке,в пустом классе,в шумном переулке,в мужской раздевалке,NULL
1681641224,c4251ef203197ef95452e332e061a79a,PennController,20,0,stimul2,NULL,PennController,20,_Trial_,Start,1681641190767,Z9398,A,49,13,pron_name,sg,"В обувной мастерской работал ты и Костя.",unerg,NA,"NA",NA,NA,NA,NA,NULL
1681641224,c4251ef203197ef95452e332e061a79a,PennController,20,0,stimul2,NULL,Controller-AcceptabilityJudgment,AcceptabilityJudgment,В обувной мастерской работал ты и Костя.,NULL,1681641198662,Z9398,A,49,13,pron_name,sg,"В обувной мастерской работал ты и Костя.",unerg,NA,"NA",NA,NA,NA,NA,Any addtional parameters were appended as additional columns
# 27. Whether or not answer was correct (NULL if N/A).
# 28. Time taken to answer..
# 29. Comments.
1681641224,c4251ef203197ef95452e332e061a79a,PennController,20,0,stimul2,NULL,Controller-AcceptabilityJudgment,AcceptabilityJudgment,NULL,2,1681641198662,Z9398,A,49,13,pron_name,sg,"В обувной мастерской работал ты и Костя.",unerg,NA,"NA",NA,NA,NA,NA,NULL,6878,Any addtional parameters were appended as additional columns
# 27. Comments.
1681641224,c4251ef203197ef95452e332e061a79a,PennController,20,0,stimul2,NULL,PennController,20,_Trial_,End,1681641198962,Z9398,A,49,13,pron_name,sg,"В обувной мастерской работал ты и Костя.",unerg,NA,"NA",NA,NA,NA,NA,NULL
1681641224,c4251ef203197ef95452e332e061a79a,PennController,37,0,filler2,NULL,PennController,37,_Trial_,Start,1681641198963,Z9398,F,79,17,NA,NA,"В последний вагоны впрыгивали Илья и Кирилл.",NA,bad,"NA",NA,NA,NA,NA,NULL
1681641224,c4251ef203197ef95452e332e061a79a,PennController,37,0,filler2,NULL,Controller-AcceptabilityJudgment,AcceptabilityJudgment,В последний вагоны впрыгивали Илья и Кирилл.,NULL,1681641202678,Z9398,F,79,17,NA,NA,"В последний вагоны впрыгивали Илья и Кирилл.",NA,bad,"NA",NA,NA,NA,NA,Any addtional parameters were appended as additional columns
# 27. Whether or not answer was correct (NULL if N/A).
# 28. Time taken to answer..
# 29. Comments.
1681641224,c4251ef203197ef95452e332e061a79a,PennController,37,0,filler2,NULL,Controller-AcceptabilityJudgment,AcceptabilityJudgment,NULL,2,1681641202678,Z9398,F,79,17,NA,NA,"В последний вагоны впрыгивали Илья и Кирилл.",NA,bad,"NA",NA,NA,NA,NA,NULL,2709,Any addtional parameters were appended as additional columns
# 27. Comments.
1681641224,c4251ef203197ef95452e332e061a79a,PennController,37,0,filler2,NULL,PennController,37,_Trial_,End,1681641202981,Z9398,F,79,17,NA,NA,"В последний вагоны впрыгивали Илья и Кирилл.",NA,bad,"NA",NA,NA,NA,NA,NULL
1681641224,c4251ef203197ef95452e332e061a79a,PennController,21,0,stimul2,NULL,PennController,21,_Trial_,Start,1681641202982,Z9398,A,56,14,name_pron,pl,"На местном стадионе бегали Кирилл и ты.",unerg,NA,"NA",NA,NA,NA,NA,NULL
1681641224,c4251ef203197ef95452e332e061a79a,PennController,21,0,stimul2,NULL,Controller-AcceptabilityJudgment,AcceptabilityJudgment,На местном стадионе бегали Кирилл и ты.,NULL,1681641206799,Z9398,A,56,14,name_pron,pl,"На местном стадионе бегали Кирилл и ты.",unerg,NA,"NA",NA,NA,NA,NA,Any addtional parameters were appended as additional columns
# 27. Whether or not answer was correct (NULL if N/A).
# 28. Time taken to answer..
# 29. Comments.
1681641224,c4251ef203197ef95452e332e061a79a,PennController,21,0,stimul2,NULL,Controller-AcceptabilityJudgment,AcceptabilityJudgment,NULL,1,1681641206799,Z9398,A,56,14,name_pron,pl,"На местном стадионе бегали Кирилл и ты.",unerg,NA,"NA",NA,NA,NA,NA,NULL,2812,Any addtional parameters were appended as additional columns
# 27. Comments.
1681641224,c4251ef203197ef95452e332e061a79a,PennController,21,0,stimul2,NULL,PennController,21,_Trial_,End,1681641207099,Z9398,A,56,14,name_pron,pl,"На местном стадионе бегали Кирилл и ты.",unerg,NA,"NA",NA,NA,NA,NA,NULL
1681641224,c4251ef203197ef95452e332e061a79a,PennController,38,0,filler2,NULL,PennController,38,_Trial_,Start,1681641207100,Z9398,F,72,17,NA,NA,"На красную кнопку нажимали Никита и Слава.",NA,good,"NA",NA,NA,NA,NA,NULL
1681641224,c4251ef203197ef95452e332e061a79a,PennController,38,0,filler2,NULL,Controller-AcceptabilityJudgment,AcceptabilityJudgment,На красную кнопку нажимали Никита и Слава.,NULL,1681641212086,Z9398,F,72,17,NA,NA,"На красную кнопку нажимали Никита и Слава.",NA,good,"NA",NA,NA,NA,NA,Any addtional parameters were appended as additional columns
# 27. Whether or not answer was correct (NULL if N/A).
# 28. Time taken to answer..
# 29. Comments.
1681641224,c4251ef203197ef95452e332e061a79a,PennController,38,0,filler2,NULL,Controller-AcceptabilityJudgment,AcceptabilityJudgment,NULL,6,1681641212086,Z9398,F,72,17,NA,NA,"На красную кнопку нажимали Никита и Слава.",NA,good,"NA",NA,NA,NA,NA,NULL,3984,Any addtional parameters were appended as additional columns
# 27. Comments.
1681641224,c4251ef203197ef95452e332e061a79a,PennController,38,0,filler2,NULL,PennController,38,_Trial_,End,1681641212389,Z9398,F,72,17,NA,NA,"На красную кнопку нажимали Никита и Слава.",NA,good,"NA",NA,NA,NA,NA,NULL
1681641224,c4251ef203197ef95452e332e061a79a,PennController,23,0,stimul2,NULL,PennController,23,_Trial_,Start,1681641212390,Z9398,A,62,16,pron_name,pl,"В продуктовый магазин шли ты и Гриша.",unerg,NA,"NA",NA,NA,NA,NA,NULL
1681641224,c4251ef203197ef95452e332e061a79a,PennController,23,0,stimul2,NULL,Controller-AcceptabilityJudgment,AcceptabilityJudgment,В продуктовый магазин шли ты и Гриша.,NULL,1681641216190,Z9398,A,62,16,pron_name,pl,"В продуктовый магазин шли ты и Гриша.",unerg,NA,"NA",NA,NA,NA,NA,Any addtional parameters were appended as additional columns
# 27. Whether or not answer was correct (NULL if N/A).
# 28. Time taken to answer..
# 29. Comments.
1681641224,c4251ef203197ef95452e332e061a79a,PennController,23,0,stimul2,NULL,Controller-AcceptabilityJudgment,AcceptabilityJudgment,NULL,1,1681641216190,Z9398,A,62,16,pron_name,pl,"В продуктовый магазин шли ты и Гриша.",unerg,NA,"NA",NA,NA,NA,NA,NULL,2798,Any addtional parameters were appended as additional columns
# 27. Comments.
1681641224,c4251ef203197ef95452e332e061a79a,PennController,23,0,stimul2,NULL,PennController,23,_Trial_,End,1681641216492,Z9398,A,62,16,pron_name,pl,"В продуктовый магазин шли ты и Гриша.",unerg,NA,"NA",NA,NA,NA,NA,NULL
1681641224,c4251ef203197ef95452e332e061a79a,PennController,39,0,filler2,NULL,PennController,39,_Trial_,Start,1681641216492,Z9398,F,80,17,NA,NA,"До лесной опушек добрели Федя и Митя.",NA,bad,"NA",NA,NA,NA,NA,NULL
1681641224,c4251ef203197ef95452e332e061a79a,PennController,39,0,filler2,NULL,Controller-AcceptabilityJudgment,AcceptabilityJudgment,До лесной опушек добрели Федя и Митя.,NULL,1681641221734,Z9398,F,80,17,NA,NA,"До лесной опушек добрели Федя и Митя.",NA,bad,"NA",NA,NA,NA,NA,Any addtional parameters were appended as additional columns
# 27. Whether or not answer was correct (NULL if N/A).
# 28. Time taken to answer..
# 29. Comments.
1681641224,c4251ef203197ef95452e332e061a79a,PennController,39,0,filler2,NULL,Controller-AcceptabilityJudgment,AcceptabilityJudgment,NULL,1,1681641221734,Z9398,F,80,17,NA,NA,"До лесной опушек добрели Федя и Митя.",NA,bad,"NA",NA,NA,NA,NA,NULL,4227,Any addtional parameters were appended as additional columns
# 27. Comments.
1681641224,c4251ef203197ef95452e332e061a79a,PennController,39,0,filler2,NULL,PennController,39,_Trial_,End,1681641222035,Z9398,F,80,17,NA,NA,"До лесной опушек добрели Федя и Митя.",NA,bad,"NA",NA,NA,NA,NA,NULL
1681641224,c4251ef203197ef95452e332e061a79a,PennController,16,0,stimul2,NULL,PennController,16,_Trial_,Start,1681641222036,Z9398,A,17,5,pron_name,sg,"На садовой скамейке сидел ты и Никита.",unacc,NA,"NA",NA,NA,NA,NA,NULL
1681641224,c4251ef203197ef95452e332e061a79a,PennController,16,0,stimul2,NULL,Controller-AcceptabilityJudgment,AcceptabilityJudgment,На садовой скамейке сидел ты и Никита.,NULL,1681641224686,Z9398,A,17,5,pron_name,sg,"На садовой скамейке сидел ты и Никита.",unacc,NA,"NA",NA,NA,NA,NA,Any addtional parameters were appended as additional columns
# 27. Whether or not answer was correct (NULL if N/A).
# 28. Time taken to answer..
# 29. Comments.
1681641224,c4251ef203197ef95452e332e061a79a,PennController,16,0,stimul2,NULL,Controller-AcceptabilityJudgment,AcceptabilityJudgment,NULL,3,1681641224686,Z9398,A,17,5,pron_name,sg,"На садовой скамейке сидел ты и Никита.",unacc,NA,"NA",NA,NA,NA,NA,NULL,1646,Any addtional parameters were appended as additional columns
# 27. Comments.
1681641224,c4251ef203197ef95452e332e061a79a,PennController,16,0,stimul2,NULL,PennController,16,_Trial_,End,1681641224987,Z9398,A,17,5,pron_name,sg,"На садовой скамейке сидел ты и Никита.",unacc,NA,"NA",NA,NA,NA,NA,NULL
#
# Results on Sun, 16 Apr 2023 10:35:52 GMT
# USER AGENT: Mozilla/5.0 (Linux; Android 13; SM-A047F) AppleWebKit/537.36 (KHTML, like Gecko) Chrome/112.0.0.0 Mobile Safari/537.36
# Design number was non-random = 0
#
# Columns below this comment are as follows:
# 1. Results reception time.
# 2. MD5 hash of participant's IP address.
# 3. Controller name.
# 4. Order number of item.
# 5. Inner element number.
# 6. Label.
# 7. Latin Square Group.
# 8. PennElementType.
# 9. PennElementName.
# 10. Parameter.
# 11. Value.
# 12. EventTime.
# 13. ParticipantID.
# 14. Comments.
1681641352,668a973f0857ce8a16e598d96f2d7142,PennController,1,0,anketa,NULL,PennController,0,_Trial_,Start,1681641071953,H8396,NULL
1681641352,668a973f0857ce8a16e598d96f2d7142,PennController,1,0,anketa,NULL,TextInput,id_response,Final,TQs6Rl,1681641135873,H8396,NULL
1681641352,668a973f0857ce8a16e598d96f2d7142,PennController,1,0,anketa,NULL,TextInput,age_response,Final,39,1681641135873,H8396,NULL
1681641352,668a973f0857ce8a16e598d96f2d7142,PennController,1,0,anketa,NULL,TextInput,age_response,First,,1681641103426,H8396,Unidentified
1681641352,668a973f0857ce8a16e598d96f2d7142,PennController,1,0,anketa,NULL,TextInput,gorod1_response,Final,Керчь,1681641135875,H8396,NULL
1681641352,668a973f0857ce8a16e598d96f2d7142,PennController,1,0,anketa,NULL,TextInput,gorod1_response,First,,1681641108618,H8396,Unidentified
1681641352,668a973f0857ce8a16e598d96f2d7142,PennController,1,0,anketa,NULL,TextInput,gorod2_response,Final,Москва,1681641135875,H8396,NULL
1681641352,668a973f0857ce8a16e598d96f2d7142,PennController,1,0,anketa,NULL,TextInput,gorod2_response,First,,1681641114196,H8396,Unidentified
1681641352,668a973f0857ce8a16e598d96f2d7142,PennController,1,0,anketa,NULL,TextInput,lang_response,Final,нет,1681641135876,H8396,NULL
1681641352,668a973f0857ce8a16e598d96f2d7142,PennController,1,0,anketa,NULL,TextInput,lang_response,First,,1681641132567,H8396,Unidentified
1681641352,668a973f0857ce8a16e598d96f2d7142,PennController,1,0,anketa,NULL,Scale,gender_response,Choice,женский,1681641100506,H8396,NULL
1681641352,668a973f0857ce8a16e598d96f2d7142,PennController,1,0,anketa,NULL,Scale,lang_edu_response,Choice,нет,1681641121529,H8396,NULL
1681641352,668a973f0857ce8a16e598d96f2d7142,PennController,1,0,anketa,NULL,PennController,0,_Trial_,End,1681641135883,H8396,NULL
# 13. Comments.
1681641352,668a973f0857ce8a16e598d96f2d7142,PennController,2,0,instruction,NULL,PennController,1,_Trial_,Start,1681641135894,NULL
1681641352,668a973f0857ce8a16e598d96f2d7142,PennController,2,0,instruction,NULL,Button,start,Click,Click,1681641177522,NULL
1681641352,668a973f0857ce8a16e598d96f2d7142,PennController,2,0,instruction,NULL,PennController,1,_Trial_,End,1681641177537,NULL
# 13. ParticipantID.
# 14. group.
# 15. sentence_id.
# 16. lexicalization.
# 17. conjuncts_order.
# 18. agreement.
# 19. sentence.
# 20. predicate_type.
# 21. filler_type.
# 22. question.
# 23. answer_1.
# 24. answer_2.
# 25. answer_3.
# 26. correct_answer.
# 27. Comments.
1681641352,668a973f0857ce8a16e598d96f2d7142,PennController,5,0,training_trials,NULL,PennController,5,_Trial_,Start,1681641177544,H8396,Tr,289,0,NA,NA,"За рабочим процессом следил ты и Андрей.",NA,good,"NA",NA,NA,NA,NA,NULL
1681641352,668a973f0857ce8a16e598d96f2d7142,PennController,5,0,training_trials,NULL,Controller-AcceptabilityJudgment,AcceptabilityJudgment,За рабочим процессом следил ты и Андрей.,NULL,1681641188589,H8396,Tr,289,0,NA,NA,"За рабочим процессом следил ты и Андрей.",NA,good,"NA",NA,NA,NA,NA,Any addtional parameters were appended as additional columns
# 27. Whether or not answer was correct (NULL if N/A).
# 28. Time taken to answer..
# 29. Comments.
1681641352,668a973f0857ce8a16e598d96f2d7142,PennController,5,0,training_trials,NULL,Controller-AcceptabilityJudgment,AcceptabilityJudgment,NULL,NULL,1681641188589,H8396,Tr,289,0,NA,NA,"За рабочим процессом следил ты и Андрей.",NA,good,"NA",NA,NA,NA,NA,NULL,10002,Any addtional parameters were appended as additional columns
# 27. Comments.
1681641352,668a973f0857ce8a16e598d96f2d7142,PennController,5,0,training_trials,NULL,PennController,5,_Trial_,End,1681641188919,H8396,Tr,289,0,NA,NA,"За рабочим процессом следил ты и Андрей.",NA,good,"NA",NA,NA,NA,NA,NULL
1681641352,668a973f0857ce8a16e598d96f2d7142,PennController,6,0,training_trials,NULL,PennController,6,_Trial_,Start,1681641188929,H8396,Tr,290,0,NA,NA,"В финальном матчах выиграли Вася и Петя.",NA,bad,"NA",NA,NA,NA,NA,NULL
1681641352,668a973f0857ce8a16e598d96f2d7142,PennController,6,0,training_trials,NULL,Controller-AcceptabilityJudgment,AcceptabilityJudgment,В финальном матчах выиграли Вася и Петя.,NULL,1681641194855,H8396,Tr,290,0,NA,NA,"В финальном матчах выиграли Вася и Петя.",NA,bad,"NA",NA,NA,NA,NA,Any addtional parameters were appended as additional columns
# 27. Whether or not answer was correct (NULL if N/A).
# 28. Time taken to answer..
# 29. Comments.
1681641352,668a973f0857ce8a16e598d96f2d7142,PennController,6,0,training_trials,NULL,Controller-AcceptabilityJudgment,AcceptabilityJudgment,NULL,1,1681641194855,H8396,Tr,290,0,NA,NA,"В финальном матчах выиграли Вася и Петя.",NA,bad,"NA",NA,NA,NA,NA,NULL,4893,Any addtional parameters were appended as additional columns
# 27. Comments.
1681641352,668a973f0857ce8a16e598d96f2d7142,PennController,6,0,training_trials,NULL,PennController,6,_Trial_,End,1681641195169,H8396,Tr,290,0,NA,NA,"В финальном матчах выиграли Вася и Петя.",NA,bad,"NA",NA,NA,NA,NA,NULL
1681641352,668a973f0857ce8a16e598d96f2d7142,PennController,7,0,training_trials,NULL,PennController,7,_Trial_,Start,1681641195178,H8396,Tr,291,0,NA,NA,"В юридическом колледже преподавали ты и Коля.",NA,good,"NA",NA,NA,NA,NA,NULL
1681641352,668a973f0857ce8a16e598d96f2d7142,PennController,7,0,training_trials,NULL,Controller-AcceptabilityJudgment,AcceptabilityJudgment,В юридическом колледже преподавали ты и Коля.,NULL,1681641198358,H8396,Tr,291,0,NA,NA,"В юридическом колледже преподавали ты и Коля.",NA,good,"NA",NA,NA,NA,NA,Any addtional parameters were appended as additional columns
# 27. Whether or not answer was correct (NULL if N/A).
# 28. Time taken to answer..
# 29. Comments.
1681641352,668a973f0857ce8a16e598d96f2d7142,PennController,7,0,training_trials,NULL,Controller-AcceptabilityJudgment,AcceptabilityJudgment,NULL,5,1681641198358,H8396,Tr,291,0,NA,NA,"В юридическом колледже преподавали ты и Коля.",NA,good,"NA",NA,NA,NA,NA,NULL,2148,Any addtional parameters were appended as additional columns
# 27. Comments.
1681641352,668a973f0857ce8a16e598d96f2d7142,PennController,7,0,training_trials,NULL,PennController,7,_Trial_,End,1681641198669,H8396,Tr,291,0,NA,NA,"В юридическом колледже преподавали ты и Коля.",NA,good,"NA",NA,NA,NA,NA,NULL
# 13. Comments.
1681641352,668a973f0857ce8a16e598d96f2d7142,PennController,3,0,start,NULL,PennController,2,_Trial_,Start,1681641198679,NULL
1681641352,668a973f0857ce8a16e598d96f2d7142,PennController,3,0,start,NULL,Button,continue1,Click,Click,1681641201306,NULL
1681641352,668a973f0857ce8a16e598d96f2d7142,PennController,3,0,start,NULL,PennController,2,_Trial_,End,1681641201311,NULL
# 13. ParticipantID.
# 14. group.
# 15. sentence_id.
# 16. lexicalization.
# 17. conjuncts_order.
# 18. agreement.
# 19. sentence.
# 20. predicate_type.
# 21. filler_type.
# 22. question.
# 23. answer_1.
# 24. answer_2.
# 25. answer_3.
# 26. correct_answer.
# 27. Comments.
1681641352,668a973f0857ce8a16e598d96f2d7142,PennController,24,0,filler1,NULL,PennController,24,_Trial_,Start,1681641201319,H8396,F,67,17,NA,NA,"На детском утреннике выступали Володя и Кеша.",NA,good,"NA",NA,NA,NA,NA,NULL
1681641352,668a973f0857ce8a16e598d96f2d7142,PennController,24,0,filler1,NULL,Controller-AcceptabilityJudgment,AcceptabilityJudgment,На детском утреннике выступали Володя и Кеша.,NULL,1681641204524,H8396,F,67,17,NA,NA,"На детском утреннике выступали Володя и Кеша.",NA,good,"NA",NA,NA,NA,NA,Any addtional parameters were appended as additional columns
# 27. Whether or not answer was correct (NULL if N/A).
# 28. Time taken to answer..
# 29. Comments.
1681641352,668a973f0857ce8a16e598d96f2d7142,PennController,24,0,filler1,NULL,Controller-AcceptabilityJudgment,AcceptabilityJudgment,NULL,6,1681641204524,H8396,F,67,17,NA,NA,"На детском утреннике выступали Володя и Кеша.",NA,good,"NA",NA,NA,NA,NA,NULL,2170,Any addtional parameters were appended as additional columns
# 27. Comments.
1681641352,668a973f0857ce8a16e598d96f2d7142,PennController,24,0,filler1,NULL,PennController,24,_Trial_,End,1681641204839,H8396,F,67,17,NA,NA,"На детском утреннике выступали Володя и Кеша.",NA,good,"NA",NA,NA,NA,NA,NULL
1681641352,668a973f0857ce8a16e598d96f2d7142,PennController,15,0,stimul1,NULL,PennController,15,_Trial_,Start,1681641204849,H8396,A,46,12,pron_name,pl,"На пишущей машинке печатали ты и Митя.",unerg,NA,"NA",NA,NA,NA,NA,NULL
1681641352,668a973f0857ce8a16e598d96f2d7142,PennController,15,0,stimul1,NULL,Controller-AcceptabilityJudgment,AcceptabilityJudgment,На пишущей машинке печатали ты и Митя.,NULL,1681641206982,H8396,A,46,12,pron_name,pl,"На пишущей машинке печатали ты и Митя.",unerg,NA,"NA",NA,NA,NA,NA,Any addtional parameters were appended as additional columns
# 27. Whether or not answer was correct (NULL if N/A).
# 28. Time taken to answer..
# 29. Comments.
1681641352,668a973f0857ce8a16e598d96f2d7142,PennController,15,0,stimul1,NULL,Controller-AcceptabilityJudgment,AcceptabilityJudgment,NULL,5,1681641206982,H8396,A,46,12,pron_name,pl,"На пишущей машинке печатали ты и Митя.",unerg,NA,"NA",NA,NA,NA,NA,NULL,1099,Any addtional parameters were appended as additional columns
# 27. Comments.
1681641352,668a973f0857ce8a16e598d96f2d7142,PennController,15,0,stimul1,NULL,PennController,15,_Trial_,End,1681641207295,H8396,A,46,12,pron_name,pl,"На пишущей машинке печатали ты и Митя.",unerg,NA,"NA",NA,NA,NA,NA,NULL
1681641352,668a973f0857ce8a16e598d96f2d7142,PennController,25,0,filler1,NULL,PennController,25,_Trial_,Start,1681641207303,H8396,F,73,17,NA,NA,"В густом туманах блуждали Андрей и Коля.",NA,bad,"NA",NA,NA,NA,NA,NULL
1681641352,668a973f0857ce8a16e598d96f2d7142,PennController,25,0,filler1,NULL,Controller-AcceptabilityJudgment,AcceptabilityJudgment,В густом туманах блуждали Андрей и Коля.,NULL,1681641209917,H8396,F,73,17,NA,NA,"В густом туманах блуждали Андрей и Коля.",NA,bad,"NA",NA,NA,NA,NA,Any addtional parameters were appended as additional columns
# 27. Whether or not answer was correct (NULL if N/A).
# 28. Time taken to answer..
# 29. Comments.
1681641352,668a973f0857ce8a16e598d96f2d7142,PennController,25,0,filler1,NULL,Controller-AcceptabilityJudgment,AcceptabilityJudgment,NULL,7,1681641209917,H8396,F,73,17,NA,NA,"В густом туманах блуждали Андрей и Коля.",NA,bad,"NA",NA,NA,NA,NA,NULL,1580,Any addtional parameters were appended as additional columns
# 27. Comments.
1681641352,668a973f0857ce8a16e598d96f2d7142,PennController,25,0,filler1,NULL,PennController,25,_Trial_,End,1681641210232,H8396,F,73,17,NA,NA,"В густом туманах блуждали Андрей и Коля.",NA,bad,"NA",NA,NA,NA,NA,NULL
1681641352,668a973f0857ce8a16e598d96f2d7142,PennController,12,0,stimul1,NULL,PennController,12,_Trial_,Start,1681641210239,H8396,A,33,9,pron_name,sg,"На дачном участке копал ты и Илья.",unerg,NA,"NA",NA,NA,NA,NA,NULL
1681641352,668a973f0857ce8a16e598d96f2d7142,PennController,12,0,stimul1,NULL,Controller-AcceptabilityJudgment,AcceptabilityJudgment,На дачном участке копал ты и Илья.,NULL,1681641213846,H8396,A,33,9,pron_name,sg,"На дачном участке копал ты и Илья.",unerg,NA,"NA",NA,NA,NA,NA,Any addtional parameters were appended as additional columns
# 27. Whether or not answer was correct (NULL if N/A).
# 28. Time taken to answer..
# 29. Comments.
1681641352,668a973f0857ce8a16e598d96f2d7142,PennController,12,0,stimul1,NULL,Controller-AcceptabilityJudgment,AcceptabilityJudgment,NULL,7,1681641213846,H8396,A,33,9,pron_name,sg,"На дачном участке копал ты и Илья.",unerg,NA,"NA",NA,NA,NA,NA,NULL,2574,Any addtional parameters were appended as additional columns
# 27. Comments.
1681641352,668a973f0857ce8a16e598d96f2d7142,PennController,12,0,stimul1,NULL,PennController,12,_Trial_,End,1681641214159,H8396,A,33,9,pron_name,sg,"На дачном участке копал ты и Илья.",unerg,NA,"NA",NA,NA,NA,NA,NULL
1681641352,668a973f0857ce8a16e598d96f2d7142,PennController,26,0,filler1,NULL,PennController,26,_Trial_,Start,1681641214167,H8396,F,68,17,NA,NA,"На званом вечере присутствовали Кирилл и Федя.",NA,good,"NA",NA,NA,NA,NA,NULL
1681641352,668a973f0857ce8a16e598d96f2d7142,PennController,26,0,filler1,NULL,Controller-AcceptabilityJudgment,AcceptabilityJudgment,На званом вечере присутствовали Кирилл и Федя.,NULL,1681641217711,H8396,F,68,17,NA,NA,"На званом вечере присутствовали Кирилл и Федя.",NA,good,"NA",NA,NA,NA,NA,Any addtional parameters were appended as additional columns
# 27. Whether or not answer was correct (NULL if N/A).
# 28. Time taken to answer..
# 29. Comments.
1681641352,668a973f0857ce8a16e598d96f2d7142,PennController,26,0,filler1,NULL,Controller-AcceptabilityJudgment,AcceptabilityJudgment,NULL,7,1681641217711,H8396,F,68,17,NA,NA,"На званом вечере присутствовали Кирилл и Федя.",NA,good,"NA",NA,NA,NA,NA,NULL,2511,Any addtional parameters were appended as additional columns
# 27. Comments.
1681641352,668a973f0857ce8a16e598d96f2d7142,PennController,26,0,filler1,NULL,PennController,26,_Trial_,End,1681641218025,H8396,F,68,17,NA,NA,"На званом вечере присутствовали Кирилл и Федя.",NA,good,"NA",NA,NA,NA,NA,NULL
1681641352,668a973f0857ce8a16e598d96f2d7142,PennController,14,0,stimul1,NULL,PennController,14,_Trial_,Start,1681641218033,H8396,A,43,11,name_pron,sg,"На школьной вечеринке танцевал Данила и ты.",unerg,NA,"NA",NA,NA,NA,NA,NULL
1681641352,668a973f0857ce8a16e598d96f2d7142,PennController,14,0,stimul1,NULL,Controller-AcceptabilityJudgment,AcceptabilityJudgment,На школьной вечеринке танцевал Данила и ты.,NULL,1681641222502,H8396,A,43,11,name_pron,sg,"На школьной вечеринке танцевал Данила и ты.",unerg,NA,"NA",NA,NA,NA,NA,Any addtional parameters were appended as additional columns
# 27. Whether or not answer was correct (NULL if N/A).
# 28. Time taken to answer..
# 29. Comments.
1681641352,668a973f0857ce8a16e598d96f2d7142,PennController,14,0,stimul1,NULL,Controller-AcceptabilityJudgment,AcceptabilityJudgment,NULL,7,1681641222502,H8396,A,43,11,name_pron,sg,"На школьной вечеринке танцевал Данила и ты.",unerg,NA,"NA",NA,NA,NA,NA,NULL,3437,Any addtional parameters were appended as additional columns
# 27. Comments.
1681641352,668a973f0857ce8a16e598d96f2d7142,PennController,14,0,stimul1,NULL,PennController,14,_Trial_,End,1681641222817,H8396,A,43,11,name_pron,sg,"На школьной вечеринке танцевал Данила и ты.",unerg,NA,"NA",NA,NA,NA,NA,NULL
1681641352,668a973f0857ce8a16e598d96f2d7142,PennController,27,0,filler1,NULL,PennController,27,_Trial_,Start,1681641222824,H8396,F,74,17,NA,NA,"В правом углах шептали Кеша и Егор.",NA,bad,"NA",NA,NA,NA,NA,NULL
1681641352,668a973f0857ce8a16e598d96f2d7142,PennController,27,0,filler1,NULL,Controller-AcceptabilityJudgment,AcceptabilityJudgment,В правом углах шептали Кеша и Егор.,NULL,1681641226374,H8396,F,74,17,NA,NA,"В правом углах шептали Кеша и Егор.",NA,bad,"NA",NA,NA,NA,NA,Any addtional parameters were appended as additional columns
# 27. Whether or not answer was correct (NULL if N/A).
# 28. Time taken to answer..
# 29. Comments.
1681641352,668a973f0857ce8a16e598d96f2d7142,PennController,27,0,filler1,NULL,Controller-AcceptabilityJudgment,AcceptabilityJudgment,NULL,5,1681641226374,H8396,F,74,17,NA,NA,"В правом углах шептали Кеша и Егор.",NA,bad,"NA",NA,NA,NA,NA,NULL,2517,Any addtional parameters were appended as additional columns
# 27. Comments.
1681641352,668a973f0857ce8a16e598d96f2d7142,PennController,27,0,filler1,NULL,PennController,27,_Trial_,End,1681641226688,H8396,F,74,17,NA,NA,"В правом углах шептали Кеша и Егор.",NA,bad,"NA",NA,NA,NA,NA,NULL
1681641352,668a973f0857ce8a16e598d96f2d7142,PennController,13,0,stimul1,NULL,PennController,13,_Trial_,Start,1681641226695,H8396,A,40,10,name_pron,pl,"На областном конкурсе пели Витя и ты.",unerg,NA,"NA",NA,NA,NA,NA,NULL
1681641352,668a973f0857ce8a16e598d96f2d7142,PennController,13,0,stimul1,NULL,Controller-AcceptabilityJudgment,AcceptabilityJudgment,На областном конкурсе пели Витя и ты.,NULL,1681641229968,H8396,A,40,10,name_pron,pl,"На областном конкурсе пели Витя и ты.",unerg,NA,"NA",NA,NA,NA,NA,Any addtional parameters were appended as additional columns
# 27. Whether or not answer was correct (NULL if N/A).
# 28. Time taken to answer..
# 29. Comments.
1681641352,668a973f0857ce8a16e598d96f2d7142,PennController,13,0,stimul1,NULL,Controller-AcceptabilityJudgment,AcceptabilityJudgment,NULL,7,1681641229968,H8396,A,40,10,name_pron,pl,"На областном конкурсе пели Витя и ты.",unerg,NA,"NA",NA,NA,NA,NA,NULL,2238,Any addtional parameters were appended as additional columns
# 27. Comments.
1681641352,668a973f0857ce8a16e598d96f2d7142,PennController,13,0,stimul1,NULL,PennController,13,_Trial_,End,1681641230284,H8396,A,40,10,name_pron,pl,"На областном конкурсе пели Витя и ты.",unerg,NA,"NA",NA,NA,NA,NA,NULL
1681641352,668a973f0857ce8a16e598d96f2d7142,PennController,28,0,filler1,NULL,PennController,28,_Trial_,Start,1681641230291,H8396,F,65,17,NA,NA,"В шахматном турнире участвовали Петя и Вася.",NA,good,"Где участвовали Петя и Вася?",в автомобильных гонках,во всероссийском конкурсе,в шахматном турнире,в шахматном турнире,NULL
1681641352,668a973f0857ce8a16e598d96f2d7142,PennController,28,0,filler1,NULL,Controller-AcceptabilityJudgment,AcceptabilityJudgment,В шахматном турнире участвовали Петя и Вася.,NULL,1681641233182,H8396,F,65,17,NA,NA,"В шахматном турнире участвовали Петя и Вася.",NA,good,"Где участвовали Петя и Вася?",в автомобильных гонках,во всероссийском конкурсе,в шахматном турнире,в шахматном турнире,Any addtional parameters were appended as additional columns
# 27. Whether or not answer was correct (NULL if N/A).
# 28. Time taken to answer..
# 29. Comments.
1681641352,668a973f0857ce8a16e598d96f2d7142,PennController,28,0,filler1,NULL,Controller-AcceptabilityJudgment,AcceptabilityJudgment,NULL,7,1681641233182,H8396,F,65,17,NA,NA,"В шахматном турнире участвовали Петя и Вася.",NA,good,"Где участвовали Петя и Вася?",в автомобильных гонках,во всероссийском конкурсе,в шахматном турнире,в шахматном турнире,NULL,1861,Any addtional parameters were appended as additional columns
1681641352,668a973f0857ce8a16e598d96f2d7142,PennController,28,0,filler1,NULL,Controller-Question,Question,Где участвовали Петя и Вася?,в шахматном турнире,1681641237363,H8396,F,65,17,NA,NA,"В шахматном турнире участвовали Петя и Вася.",NA,good,"Где участвовали Петя и Вася?",в автомобильных гонках,во всероссийском конкурсе,в шахматном турнире,в шахматном турнире,1,3864,Any addtional parameters were appended as additional columns
# 27. Comments.
1681641352,668a973f0857ce8a16e598d96f2d7142,PennController,28,0,filler1,NULL,PennController,28,_Trial_,End,1681641237374,H8396,F,65,17,NA,NA,"В шахматном турнире участвовали Петя и Вася.",NA,good,"Где участвовали Петя и Вася?",в автомобильных гонках,во всероссийском конкурсе,в шахматном турнире,в шахматном турнире,NULL
1681641352,668a973f0857ce8a16e598d96f2d7142,PennController,9,0,stimul1,NULL,PennController,9,_Trial_,Start,1681641237380,H8396,A,8,2,name_pron,pl,"В районном центре жили Петя и ты.",unacc,NA,"NA",NA,NA,NA,NA,NULL
1681641352,668a973f0857ce8a16e598d96f2d7142,PennController,9,0,stimul1,NULL,Controller-AcceptabilityJudgment,AcceptabilityJudgment,В районном центре жили Петя и ты.,NULL,1681641242334,H8396,A,8,2,name_pron,pl,"В районном центре жили Петя и ты.",unacc,NA,"NA",NA,NA,NA,NA,Any addtional parameters were appended as additional columns
# 27. Whether or not answer was correct (NULL if N/A).
# 28. Time taken to answer..
# 29. Comments.
1681641352,668a973f0857ce8a16e598d96f2d7142,PennController,9,0,stimul1,NULL,Controller-AcceptabilityJudgment,AcceptabilityJudgment,NULL,7,1681641242334,H8396,A,8,2,name_pron,pl,"В районном центре жили Петя и ты.",unacc,NA,"NA",NA,NA,NA,NA,NULL,3926,Any addtional parameters were appended as additional columns
# 27. Comments.
1681641352,668a973f0857ce8a16e598d96f2d7142,PennController,9,0,stimul1,NULL,PennController,9,_Trial_,End,1681641242645,H8396,A,8,2,name_pron,pl,"В районном центре жили Петя и ты.",unacc,NA,"NA",NA,NA,NA,NA,NULL
1681641352,668a973f0857ce8a16e598d96f2d7142,PennController,29,0,filler1,NULL,PennController,29,_Trial_,Start,1681641242652,H8396,F,75,17,NA,NA,"В соседнюю страны путешествовали Лёва и Федя.",NA,bad,"NA",NA,NA,NA,NA,NULL
1681641352,668a973f0857ce8a16e598d96f2d7142,PennController,29,0,filler1,NULL,Controller-AcceptabilityJudgment,AcceptabilityJudgment,В соседнюю страны путешествовали Лёва и Федя.,NULL,1681641246957,H8396,F,75,17,NA,NA,"В соседнюю страны путешествовали Лёва и Федя.",NA,bad,"NA",NA,NA,NA,NA,Any addtional parameters were appended as additional columns
# 27. Whether or not answer was correct (NULL if N/A).
# 28. Time taken to answer..
# 29. Comments.
1681641352,668a973f0857ce8a16e598d96f2d7142,PennController,29,0,filler1,NULL,Controller-AcceptabilityJudgment,AcceptabilityJudgment,NULL,7,1681641246957,H8396,F,75,17,NA,NA,"В соседнюю страны путешествовали Лёва и Федя.",NA,bad,"NA",NA,NA,NA,NA,NULL,3279,Any addtional parameters were appended as additional columns
# 27. Comments.
1681641352,668a973f0857ce8a16e598d96f2d7142,PennController,29,0,filler1,NULL,PennController,29,_Trial_,End,1681641247273,H8396,F,75,17,NA,NA,"В соседнюю страны путешествовали Лёва и Федя.",NA,bad,"NA",NA,NA,NA,NA,NULL
1681641352,668a973f0857ce8a16e598d96f2d7142,PennController,8,0,stimul1,NULL,PennController,8,_Trial_,Start,1681641247280,H8396,A,1,1,pron_name,sg,"В двухместной палатке спал ты и Вася.",unacc,NA,"NA",NA,NA,NA,NA,NULL
1681641352,668a973f0857ce8a16e598d96f2d7142,PennController,8,0,stimul1,NULL,Controller-AcceptabilityJudgment,AcceptabilityJudgment,В двухместной палатке спал ты и Вася.,NULL,1681641250245,H8396,A,1,1,pron_name,sg,"В двухместной палатке спал ты и Вася.",unacc,NA,"NA",NA,NA,NA,NA,Any addtional parameters were appended as additional columns
# 27. Whether or not answer was correct (NULL if N/A).
# 28. Time taken to answer..
# 29. Comments.
1681641352,668a973f0857ce8a16e598d96f2d7142,PennController,8,0,stimul1,NULL,Controller-AcceptabilityJudgment,AcceptabilityJudgment,NULL,7,1681641250245,H8396,A,1,1,pron_name,sg,"В двухместной палатке спал ты и Вася.",unacc,NA,"NA",NA,NA,NA,NA,NULL,1935,Any addtional parameters were appended as additional columns
# 27. Comments.
1681641352,668a973f0857ce8a16e598d96f2d7142,PennController,8,0,stimul1,NULL,PennController,8,_Trial_,End,1681641250561,H8396,A,1,1,pron_name,sg,"В двухместной палатке спал ты и Вася.",unacc,NA,"NA",NA,NA,NA,NA,NULL
1681641352,668a973f0857ce8a16e598d96f2d7142,PennController,30,0,filler1,NULL,PennController,30,_Trial_,Start,1681641250569,H8396,F,69,17,NA,NA,"В волонтёрском центре помогали Гриша и Слава.",NA,good,"NA",NA,NA,NA,NA,NULL
1681641352,668a973f0857ce8a16e598d96f2d7142,PennController,30,0,filler1,NULL,Controller-AcceptabilityJudgment,AcceptabilityJudgment,В волонтёрском центре помогали Гриша и Слава.,NULL,1681641254079,H8396,F,69,17,NA,NA,"В волонтёрском центре помогали Гриша и Слава.",NA,good,"NA",NA,NA,NA,NA,Any addtional parameters were appended as additional columns
# 27. Whether or not answer was correct (NULL if N/A).
# 28. Time taken to answer..
# 29. Comments.
1681641352,668a973f0857ce8a16e598d96f2d7142,PennController,30,0,filler1,NULL,Controller-AcceptabilityJudgment,AcceptabilityJudgment,NULL,7,1681641254079,H8396,F,69,17,NA,NA,"В волонтёрском центре помогали Гриша и Слава.",NA,good,"NA",NA,NA,NA,NA,NULL,2476,Any addtional parameters were appended as additional columns
# 27. Comments.
1681641352,668a973f0857ce8a16e598d96f2d7142,PennController,30,0,filler1,NULL,PennController,30,_Trial_,End,1681641254395,H8396,F,69,17,NA,NA,"В волонтёрском центре помогали Гриша и Слава.",NA,good,"NA",NA,NA,NA,NA,NULL
1681641352,668a973f0857ce8a16e598d96f2d7142,PennController,10,0,stimul1,NULL,PennController,10,_Trial_,Start,1681641254403,H8396,A,11,3,name_pron,sg,"На городском пляже загорал Ваня и ты.",unacc,NA,"NA",NA,NA,NA,NA,NULL
1681641352,668a973f0857ce8a16e598d96f2d7142,PennController,10,0,stimul1,NULL,Controller-AcceptabilityJudgment,AcceptabilityJudgment,На городском пляже загорал Ваня и ты.,NULL,1681641257974,H8396,A,11,3,name_pron,sg,"На городском пляже загорал Ваня и ты.",unacc,NA,"NA",NA,NA,NA,NA,Any addtional parameters were appended as additional columns
# 27. Whether or not answer was correct (NULL if N/A).
# 28. Time taken to answer..
# 29. Comments.
1681641352,668a973f0857ce8a16e598d96f2d7142,PennController,10,0,stimul1,NULL,Controller-AcceptabilityJudgment,AcceptabilityJudgment,NULL,6,1681641257974,H8396,A,11,3,name_pron,sg,"На городском пляже загорал Ваня и ты.",unacc,NA,"NA",NA,NA,NA,NA,NULL,2542,Any addtional parameters were appended as additional columns
# 27. Comments.
1681641352,668a973f0857ce8a16e598d96f2d7142,PennController,10,0,stimul1,NULL,PennController,10,_Trial_,End,1681641258288,H8396,A,11,3,name_pron,sg,"На городском пляже загорал Ваня и ты.",unacc,NA,"NA",NA,NA,NA,NA,NULL
1681641352,668a973f0857ce8a16e598d96f2d7142,PennController,31,0,filler1,NULL,PennController,31,_Trial_,Start,1681641258296,H8396,F,76,17,NA,NA,"На шумной улицах разговаривали Максим и Гена.",NA,bad,"NA",NA,NA,NA,NA,NULL
1681641352,668a973f0857ce8a16e598d96f2d7142,PennController,31,0,filler1,NULL,Controller-AcceptabilityJudgment,AcceptabilityJudgment,На шумной улицах разговаривали Максим и Гена.,NULL,1681641263310,H8396,F,76,17,NA,NA,"На шумной улицах разговаривали Максим и Гена.",NA,bad,"NA",NA,NA,NA,NA,Any addtional parameters were appended as additional columns
# 27. Whether or not answer was correct (NULL if N/A).
# 28. Time taken to answer..
# 29. Comments.
1681641352,668a973f0857ce8a16e598d96f2d7142,PennController,31,0,filler1,NULL,Controller-AcceptabilityJudgment,AcceptabilityJudgment,NULL,6,1681641263310,H8396,F,76,17,NA,NA,"На шумной улицах разговаривали Максим и Гена.",NA,bad,"NA",NA,NA,NA,NA,NULL,3981,Any addtional parameters were appended as additional columns
# 27. Comments.
1681641352,668a973f0857ce8a16e598d96f2d7142,PennController,31,0,filler1,NULL,PennController,31,_Trial_,End,1681641263622,H8396,F,76,17,NA,NA,"На шумной улицах разговаривали Максим и Гена.",NA,bad,"NA",NA,NA,NA,NA,NULL
1681641352,668a973f0857ce8a16e598d96f2d7142,PennController,11,0,stimul1,NULL,PennController,11,_Trial_,Start,1681641263629,H8396,A,14,4,pron_name,pl,"В инфекционной больнице лежали ты и Миша.",unacc,NA,"NA",NA,NA,NA,NA,NULL
1681641352,668a973f0857ce8a16e598d96f2d7142,PennController,11,0,stimul1,NULL,Controller-AcceptabilityJudgment,AcceptabilityJudgment,В инфекционной больнице лежали ты и Миша.,NULL,1681641266645,H8396,A,14,4,pron_name,pl,"В инфекционной больнице лежали ты и Миша.",unacc,NA,"NA",NA,NA,NA,NA,Any addtional parameters were appended as additional columns
# 27. Whether or not answer was correct (NULL if N/A).
# 28. Time taken to answer..
# 29. Comments.
1681641352,668a973f0857ce8a16e598d96f2d7142,PennController,11,0,stimul1,NULL,Controller-AcceptabilityJudgment,AcceptabilityJudgment,NULL,6,1681641266645,H8396,A,14,4,pron_name,pl,"В инфекционной больнице лежали ты и Миша.",unacc,NA,"NA",NA,NA,NA,NA,NULL,1990,Any addtional parameters were appended as additional columns
# 27. Comments.
1681641352,668a973f0857ce8a16e598d96f2d7142,PennController,11,0,stimul1,NULL,PennController,11,_Trial_,End,1681641266957,H8396,A,14,4,pron_name,pl,"В инфекционной больнице лежали ты и Миша.",unacc,NA,"NA",NA,NA,NA,NA,NULL
# 13. Comments.
1681641352,668a973f0857ce8a16e598d96f2d7142,PennController,4,0,break,NULL,PennController,3,_Trial_,Start,1681641266964,NULL
1681641352,668a973f0857ce8a16e598d96f2d7142,PennController,4,0,break,NULL,Button,continue2,Click,Click,1681641273290,NULL
1681641352,668a973f0857ce8a16e598d96f2d7142,PennController,4,0,break,NULL,PennController,3,_Trial_,End,1681641273297,NULL
# 13. ParticipantID.
# 14. group.
# 15. sentence_id.
# 16. lexicalization.
# 17. conjuncts_order.
# 18. agreement.
# 19. sentence.
# 20. predicate_type.
# 21. filler_type.
# 22. question.
# 23. answer_1.
# 24. answer_2.
# 25. answer_3.
# 26. correct_answer.
# 27. Comments.
1681641352,668a973f0857ce8a16e598d96f2d7142,PennController,32,0,filler2,NULL,PennController,32,_Trial_,Start,1681641273303,H8396,F,70,17,NA,NA,"В холодную воду прыгали Лёва и Денис.",NA,good,"NA",NA,NA,NA,NA,NULL
1681641352,668a973f0857ce8a16e598d96f2d7142,PennController,32,0,filler2,NULL,Controller-AcceptabilityJudgment,AcceptabilityJudgment,В холодную воду прыгали Лёва и Денис.,NULL,1681641276245,H8396,F,70,17,NA,NA,"В холодную воду прыгали Лёва и Денис.",NA,good,"NA",NA,NA,NA,NA,Any addtional parameters were appended as additional columns
# 27. Whether or not answer was correct (NULL if N/A).
# 28. Time taken to answer..
# 29. Comments.
1681641352,668a973f0857ce8a16e598d96f2d7142,PennController,32,0,filler2,NULL,Controller-AcceptabilityJudgment,AcceptabilityJudgment,NULL,5,1681641276245,H8396,F,70,17,NA,NA,"В холодную воду прыгали Лёва и Денис.",NA,good,"NA",NA,NA,NA,NA,NULL,1908,Any addtional parameters were appended as additional columns
# 27. Comments.
1681641352,668a973f0857ce8a16e598d96f2d7142,PennController,32,0,filler2,NULL,PennController,32,_Trial_,End,1681641276557,H8396,F,70,17,NA,NA,"В холодную воду прыгали Лёва и Денис.",NA,good,"NA",NA,NA,NA,NA,NULL
1681641352,668a973f0857ce8a16e598d96f2d7142,PennController,20,0,stimul2,NULL,PennController,20,_Trial_,Start,1681641276565,H8396,A,49,13,pron_name,sg,"В обувной мастерской работал ты и Костя.",unerg,NA,"NA",NA,NA,NA,NA,NULL
1681641352,668a973f0857ce8a16e598d96f2d7142,PennController,20,0,stimul2,NULL,Controller-AcceptabilityJudgment,AcceptabilityJudgment,В обувной мастерской работал ты и Костя.,NULL,1681641279566,H8396,A,49,13,pron_name,sg,"В обувной мастерской работал ты и Костя.",unerg,NA,"NA",NA,NA,NA,NA,Any addtional parameters were appended as additional columns
# 27. Whether or not answer was correct (NULL if N/A).
# 28. Time taken to answer..
# 29. Comments.
1681641352,668a973f0857ce8a16e598d96f2d7142,PennController,20,0,stimul2,NULL,Controller-AcceptabilityJudgment,AcceptabilityJudgment,NULL,6,1681641279566,H8396,A,49,13,pron_name,sg,"В обувной мастерской работал ты и Костя.",unerg,NA,"NA",NA,NA,NA,NA,NULL,1982,Any addtional parameters were appended as additional columns
# 27. Comments.
1681641352,668a973f0857ce8a16e598d96f2d7142,PennController,20,0,stimul2,NULL,PennController,20,_Trial_,End,1681641279877,H8396,A,49,13,pron_name,sg,"В обувной мастерской работал ты и Костя.",unerg,NA,"NA",NA,NA,NA,NA,NULL
1681641352,668a973f0857ce8a16e598d96f2d7142,PennController,33,0,filler2,NULL,PennController,33,_Trial_,Start,1681641279885,H8396,F,77,17,NA,NA,"В крытый бассейны ныряли Вова и Серёжа.",NA,bad,"NA",NA,NA,NA,NA,NULL
1681641352,668a973f0857ce8a16e598d96f2d7142,PennController,33,0,filler2,NULL,Controller-AcceptabilityJudgment,AcceptabilityJudgment,В крытый бассейны ныряли Вова и Серёжа.,NULL,1681641283542,H8396,F,77,17,NA,NA,"В крытый бассейны ныряли Вова и Серёжа.",NA,bad,"NA",NA,NA,NA,NA,Any addtional parameters were appended as additional columns
# 27. Whether or not answer was correct (NULL if N/A).
# 28. Time taken to answer..
# 29. Comments.
1681641352,668a973f0857ce8a16e598d96f2d7142,PennController,33,0,filler2,NULL,Controller-AcceptabilityJudgment,AcceptabilityJudgment,NULL,6,1681641283542,H8396,F,77,17,NA,NA,"В крытый бассейны ныряли Вова и Серёжа.",NA,bad,"NA",NA,NA,NA,NA,NULL,2628,Any addtional parameters were appended as additional columns
# 27. Comments.
1681641352,668a973f0857ce8a16e598d96f2d7142,PennController,33,0,filler2,NULL,PennController,33,_Trial_,End,1681641283853,H8396,F,77,17,NA,NA,"В крытый бассейны ныряли Вова и Серёжа.",NA,bad,"NA",NA,NA,NA,NA,NULL
1681641352,668a973f0857ce8a16e598d96f2d7142,PennController,21,0,stimul2,NULL,PennController,21,_Trial_,Start,1681641283862,H8396,A,56,14,name_pron,pl,"На местном стадионе бегали Кирилл и ты.",unerg,NA,"NA",NA,NA,NA,NA,NULL
1681641352,668a973f0857ce8a16e598d96f2d7142,PennController,21,0,stimul2,NULL,Controller-AcceptabilityJudgment,AcceptabilityJudgment,На местном стадионе бегали Кирилл и ты.,NULL,1681641289238,H8396,A,56,14,name_pron,pl,"На местном стадионе бегали Кирилл и ты.",unerg,NA,"NA",NA,NA,NA,NA,Any addtional parameters were appended as additional columns
# 27. Whether or not answer was correct (NULL if N/A).
# 28. Time taken to answer..
# 29. Comments.
1681641352,668a973f0857ce8a16e598d96f2d7142,PennController,21,0,stimul2,NULL,Controller-AcceptabilityJudgment,AcceptabilityJudgment,NULL,6,1681641289238,H8396,A,56,14,name_pron,pl,"На местном стадионе бегали Кирилл и ты.",unerg,NA,"NA",NA,NA,NA,NA,NULL,4350,Any addtional parameters were appended as additional columns
# 27. Comments.
1681641352,668a973f0857ce8a16e598d96f2d7142,PennController,21,0,stimul2,NULL,PennController,21,_Trial_,End,1681641289553,H8396,A,56,14,name_pron,pl,"На местном стадионе бегали Кирилл и ты.",unerg,NA,"NA",NA,NA,NA,NA,NULL
1681641352,668a973f0857ce8a16e598d96f2d7142,PennController,34,0,filler2,NULL,PennController,34,_Trial_,Start,1681641289560,H8396,F,71,17,NA,NA,"В билетной кассе платили Лёша и Вася.",NA,good,"NA",NA,NA,NA,NA,NULL
1681641352,668a973f0857ce8a16e598d96f2d7142,PennController,34,0,filler2,NULL,Controller-AcceptabilityJudgment,AcceptabilityJudgment,В билетной кассе платили Лёша и Вася.,NULL,1681641294109,H8396,F,71,17,NA,NA,"В билетной кассе платили Лёша и Вася.",NA,good,"NA",NA,NA,NA,NA,Any addtional parameters were appended as additional columns
# 27. Whether or not answer was correct (NULL if N/A).
# 28. Time taken to answer..
# 29. Comments.
1681641352,668a973f0857ce8a16e598d96f2d7142,PennController,34,0,filler2,NULL,Controller-AcceptabilityJudgment,AcceptabilityJudgment,NULL,7,1681641294109,H8396,F,71,17,NA,NA,"В билетной кассе платили Лёша и Вася.",NA,good,"NA",NA,NA,NA,NA,NULL,3514,Any addtional parameters were appended as additional columns
# 27. Comments.
1681641352,668a973f0857ce8a16e598d96f2d7142,PennController,34,0,filler2,NULL,PennController,34,_Trial_,End,1681641294422,H8396,F,71,17,NA,NA,"В билетной кассе платили Лёша и Вася.",NA,good,"NA",NA,NA,NA,NA,NULL
1681641352,668a973f0857ce8a16e598d96f2d7142,PennController,23,0,stimul2,NULL,PennController,23,_Trial_,Start,1681641294429,H8396,A,62,16,pron_name,pl,"В продуктовый магазин шли ты и Гриша.",unerg,NA,"NA",NA,NA,NA,NA,NULL
1681641352,668a973f0857ce8a16e598d96f2d7142,PennController,23,0,stimul2,NULL,Controller-AcceptabilityJudgment,AcceptabilityJudgment,В продуктовый магазин шли ты и Гриша.,NULL,1681641297757,H8396,A,62,16,pron_name,pl,"В продуктовый магазин шли ты и Гриша.",unerg,NA,"NA",NA,NA,NA,NA,Any addtional parameters were appended as additional columns
# 27. Whether or not answer was correct (NULL if N/A).
# 28. Time taken to answer..
# 29. Comments.
1681641352,668a973f0857ce8a16e598d96f2d7142,PennController,23,0,stimul2,NULL,Controller-AcceptabilityJudgment,AcceptabilityJudgment,NULL,7,1681641297757,H8396,A,62,16,pron_name,pl,"В продуктовый магазин шли ты и Гриша.",unerg,NA,"NA",NA,NA,NA,NA,NULL,2303,Any addtional parameters were appended as additional columns
# 27. Comments.
1681641352,668a973f0857ce8a16e598d96f2d7142,PennController,23,0,stimul2,NULL,PennController,23,_Trial_,End,1681641298069,H8396,A,62,16,pron_name,pl,"В продуктовый магазин шли ты и Гриша.",unerg,NA,"NA",NA,NA,NA,NA,NULL
1681641352,668a973f0857ce8a16e598d96f2d7142,PennController,35,0,filler2,NULL,PennController,35,_Trial_,Start,1681641298076,H8396,F,78,17,NA,NA,"В грязной прихожих пылесосили Артём и Дима.",NA,bad,"NA",NA,NA,NA,NA,NULL
1681641352,668a973f0857ce8a16e598d96f2d7142,PennController,35,0,filler2,NULL,Controller-AcceptabilityJudgment,AcceptabilityJudgment,В грязной прихожих пылесосили Артём и Дима.,NULL,1681641305102,H8396,F,78,17,NA,NA,"В грязной прихожих пылесосили Артём и Дима.",NA,bad,"NA",NA,NA,NA,NA,Any addtional parameters were appended as additional columns
# 27. Whether or not answer was correct (NULL if N/A).
# 28. Time taken to answer..
# 29. Comments.
1681641352,668a973f0857ce8a16e598d96f2d7142,PennController,35,0,filler2,NULL,Controller-AcceptabilityJudgment,AcceptabilityJudgment,NULL,3,1681641305102,H8396,F,78,17,NA,NA,"В грязной прихожих пылесосили Артём и Дима.",NA,bad,"NA",NA,NA,NA,NA,NULL,5998,Any addtional parameters were appended as additional columns
# 27. Comments.
1681641352,668a973f0857ce8a16e598d96f2d7142,PennController,35,0,filler2,NULL,PennController,35,_Trial_,End,1681641305415,H8396,F,78,17,NA,NA,"В грязной прихожих пылесосили Артём и Дима.",NA,bad,"NA",NA,NA,NA,NA,NULL
1681641352,668a973f0857ce8a16e598d96f2d7142,PennController,17,0,stimul2,NULL,PennController,17,_Trial_,Start,1681641305422,H8396,A,24,6,name_pron,pl,"В педагогический университет поступали Паша и ты.",unacc,NA,"NA",NA,NA,NA,NA,NULL
1681641352,668a973f0857ce8a16e598d96f2d7142,PennController,17,0,stimul2,NULL,Controller-AcceptabilityJudgment,AcceptabilityJudgment,В педагогический университет поступали Паша и ты.,NULL,1681641308913,H8396,A,24,6,name_pron,pl,"В педагогический университет поступали Паша и ты.",unacc,NA,"NA",NA,NA,NA,NA,Any addtional parameters were appended as additional columns
# 27. Whether or not answer was correct (NULL if N/A).
# 28. Time taken to answer..
# 29. Comments.
1681641352,668a973f0857ce8a16e598d96f2d7142,PennController,17,0,stimul2,NULL,Controller-AcceptabilityJudgment,AcceptabilityJudgment,NULL,7,1681641308913,H8396,A,24,6,name_pron,pl,"В педагогический университет поступали Паша и ты.",unacc,NA,"NA",NA,NA,NA,NA,NULL,2466,Any addtional parameters were appended as additional columns
# 27. Comments.
1681641352,668a973f0857ce8a16e598d96f2d7142,PennController,17,0,stimul2,NULL,PennController,17,_Trial_,End,1681641309226,H8396,A,24,6,name_pron,pl,"В педагогический университет поступали Паша и ты.",unacc,NA,"NA",NA,NA,NA,NA,NULL
1681641352,668a973f0857ce8a16e598d96f2d7142,PennController,36,0,filler2,NULL,PennController,36,_Trial_,Start,1681641309233,H8396,F,66,17,NA,NA,"В мужской раздевалке болтали Ваня и Коля.",NA,good,"Где болтали Ваня и Коля?",в мужской раздевалке,в пустом классе,в шумном переулке,в мужской раздевалке,NULL
1681641352,668a973f0857ce8a16e598d96f2d7142,PennController,36,0,filler2,NULL,Controller-AcceptabilityJudgment,AcceptabilityJudgment,В мужской раздевалке болтали Ваня и Коля.,NULL,1681641315502,H8396,F,66,17,NA,NA,"В мужской раздевалке болтали Ваня и Коля.",NA,good,"Где болтали Ваня и Коля?",в мужской раздевалке,в пустом классе,в шумном переулке,в мужской раздевалке,Any addtional parameters were appended as additional columns
# 27. Whether or not answer was correct (NULL if N/A).
# 28. Time taken to answer..
# 29. Comments.
1681641352,668a973f0857ce8a16e598d96f2d7142,PennController,36,0,filler2,NULL,Controller-AcceptabilityJudgment,AcceptabilityJudgment,NULL,3,1681641315502,H8396,F,66,17,NA,NA,"В мужской раздевалке болтали Ваня и Коля.",NA,good,"Где болтали Ваня и Коля?",в мужской раздевалке,в пустом классе,в шумном переулке,в мужской раздевалке,NULL,5238,Any addtional parameters were appended as additional columns
1681641352,668a973f0857ce8a16e598d96f2d7142,PennController,36,0,filler2,NULL,Controller-Question,Question,Где болтали Ваня и Коля?,в мужской раздевалке,1681641317940,H8396,F,66,17,NA,NA,"В мужской раздевалке болтали Ваня и Коля.",NA,good,"Где болтали Ваня и Коля?",в мужской раздевалке,в пустом классе,в шумном переулке,в мужской раздевалке,1,2122,Any addtional parameters were appended as additional columns
# 27. Comments.
1681641352,668a973f0857ce8a16e598d96f2d7142,PennController,36,0,filler2,NULL,PennController,36,_Trial_,End,1681641317951,H8396,F,66,17,NA,NA,"В мужской раздевалке болтали Ваня и Коля.",NA,good,"Где болтали Ваня и Коля?",в мужской раздевалке,в пустом классе,в шумном переулке,в мужской раздевалке,NULL
1681641352,668a973f0857ce8a16e598d96f2d7142,PennController,19,0,stimul2,NULL,PennController,19,_Trial_,Start,1681641317956,H8396,A,30,8,pron_name,pl,"На вечерние занятия приходили ты и Володя.",unacc,NA,"NA",NA,NA,NA,NA,NULL
1681641352,668a973f0857ce8a16e598d96f2d7142,PennController,19,0,stimul2,NULL,Controller-AcceptabilityJudgment,AcceptabilityJudgment,На вечерние занятия приходили ты и Володя.,NULL,1681641325126,H8396,A,30,8,pron_name,pl,"На вечерние занятия приходили ты и Володя.",unacc,NA,"NA",NA,NA,NA,NA,Any addtional parameters were appended as additional columns
# 27. Whether or not answer was correct (NULL if N/A).
# 28. Time taken to answer..
# 29. Comments.
1681641352,668a973f0857ce8a16e598d96f2d7142,PennController,19,0,stimul2,NULL,Controller-AcceptabilityJudgment,AcceptabilityJudgment,NULL,2,1681641325126,H8396,A,30,8,pron_name,pl,"На вечерние занятия приходили ты и Володя.",unacc,NA,"NA",NA,NA,NA,NA,NULL,6144,Any addtional parameters were appended as additional columns
# 27. Comments.
1681641352,668a973f0857ce8a16e598d96f2d7142,PennController,19,0,stimul2,NULL,PennController,19,_Trial_,End,1681641325441,H8396,A,30,8,pron_name,pl,"На вечерние занятия приходили ты и Володя.",unacc,NA,"NA",NA,NA,NA,NA,NULL
1681641352,668a973f0857ce8a16e598d96f2d7142,PennController,37,0,filler2,NULL,PennController,37,_Trial_,Start,1681641325449,H8396,F,79,17,NA,NA,"В последний вагоны впрыгивали Илья и Кирилл.",NA,bad,"NA",NA,NA,NA,NA,NULL
1681641352,668a973f0857ce8a16e598d96f2d7142,PennController,37,0,filler2,NULL,Controller-AcceptabilityJudgment,AcceptabilityJudgment,В последний вагоны впрыгивали Илья и Кирилл.,NULL,1681641328510,H8396,F,79,17,NA,NA,"В последний вагоны впрыгивали Илья и Кирилл.",NA,bad,"NA",NA,NA,NA,NA,Any addtional parameters were appended as additional columns
# 27. Whether or not answer was correct (NULL if N/A).
# 28. Time taken to answer..
# 29. Comments.
1681641352,668a973f0857ce8a16e598d96f2d7142,PennController,37,0,filler2,NULL,Controller-AcceptabilityJudgment,AcceptabilityJudgment,NULL,2,1681641328510,H8396,F,79,17,NA,NA,"В последний вагоны впрыгивали Илья и Кирилл.",NA,bad,"NA",NA,NA,NA,NA,NULL,2030,Any addtional parameters were appended as additional columns
# 27. Comments.
1681641352,668a973f0857ce8a16e598d96f2d7142,PennController,37,0,filler2,NULL,PennController,37,_Trial_,End,1681641328824,H8396,F,79,17,NA,NA,"В последний вагоны впрыгивали Илья и Кирилл.",NA,bad,"NA",NA,NA,NA,NA,NULL
1681641352,668a973f0857ce8a16e598d96f2d7142,PennController,18,0,stimul2,NULL,PennController,18,_Trial_,Start,1681641328831,H8396,A,27,7,name_pron,sg,"На футбольных воротах стоял Влад и ты.",unacc,NA,"NA",NA,NA,NA,NA,NULL
1681641352,668a973f0857ce8a16e598d96f2d7142,PennController,18,0,stimul2,NULL,Controller-AcceptabilityJudgment,AcceptabilityJudgment,На футбольных воротах стоял Влад и ты.,NULL,1681641332925,H8396,A,27,7,name_pron,sg,"На футбольных воротах стоял Влад и ты.",unacc,NA,"NA",NA,NA,NA,NA,Any addtional parameters were appended as additional columns
# 27. Whether or not answer was correct (NULL if N/A).
# 28. Time taken to answer..
# 29. Comments.
1681641352,668a973f0857ce8a16e598d96f2d7142,PennController,18,0,stimul2,NULL,Controller-AcceptabilityJudgment,AcceptabilityJudgment,NULL,5,1681641332925,H8396,A,27,7,name_pron,sg,"На футбольных воротах стоял Влад и ты.",unacc,NA,"NA",NA,NA,NA,NA,NULL,3071,Any addtional parameters were appended as additional columns
# 27. Comments.
1681641352,668a973f0857ce8a16e598d96f2d7142,PennController,18,0,stimul2,NULL,PennController,18,_Trial_,End,1681641333243,H8396,A,27,7,name_pron,sg,"На футбольных воротах стоял Влад и ты.",unacc,NA,"NA",NA,NA,NA,NA,NULL
1681641352,668a973f0857ce8a16e598d96f2d7142,PennController,38,0,filler2,NULL,PennController,38,_Trial_,Start,1681641333252,H8396,F,72,17,NA,NA,"На красную кнопку нажимали Никита и Слава.",NA,good,"NA",NA,NA,NA,NA,NULL
1681641352,668a973f0857ce8a16e598d96f2d7142,PennController,38,0,filler2,NULL,Controller-AcceptabilityJudgment,AcceptabilityJudgment,На красную кнопку нажимали Никита и Слава.,NULL,1681641338845,H8396,F,72,17,NA,NA,"На красную кнопку нажимали Никита и Слава.",NA,good,"NA",NA,NA,NA,NA,Any addtional parameters were appended as additional columns
# 27. Whether or not answer was correct (NULL if N/A).
# 28. Time taken to answer..
# 29. Comments.
1681641352,668a973f0857ce8a16e598d96f2d7142,PennController,38,0,filler2,NULL,Controller-AcceptabilityJudgment,AcceptabilityJudgment,NULL,7,1681641338845,H8396,F,72,17,NA,NA,"На красную кнопку нажимали Никита и Слава.",NA,good,"NA",NA,NA,NA,NA,NULL,4567,Any addtional parameters were appended as additional columns
# 27. Comments.
1681641352,668a973f0857ce8a16e598d96f2d7142,PennController,38,0,filler2,NULL,PennController,38,_Trial_,End,1681641339159,H8396,F,72,17,NA,NA,"На красную кнопку нажимали Никита и Слава.",NA,good,"NA",NA,NA,NA,NA,NULL
1681641352,668a973f0857ce8a16e598d96f2d7142,PennController,22,0,stimul2,NULL,PennController,22,_Trial_,Start,1681641339168,H8396,A,59,15,name_pron,sg,"На детской площадке играл Андрей и ты.",unerg,NA,"NA",NA,NA,NA,NA,NULL
1681641352,668a973f0857ce8a16e598d96f2d7142,PennController,22,0,stimul2,NULL,Controller-AcceptabilityJudgment,AcceptabilityJudgment,На детской площадке играл Андрей и ты.,NULL,1681641342007,H8396,A,59,15,name_pron,sg,"На детской площадке играл Андрей и ты.",unerg,NA,"NA",NA,NA,NA,NA,Any addtional parameters were appended as additional columns
# 27. Whether or not answer was correct (NULL if N/A).
# 28. Time taken to answer..
# 29. Comments.
1681641352,668a973f0857ce8a16e598d96f2d7142,PennController,22,0,stimul2,NULL,Controller-AcceptabilityJudgment,AcceptabilityJudgment,NULL,7,1681641342007,H8396,A,59,15,name_pron,sg,"На детской площадке играл Андрей и ты.",unerg,NA,"NA",NA,NA,NA,NA,NULL,1804,Any addtional parameters were appended as additional columns
# 27. Comments.
1681641352,668a973f0857ce8a16e598d96f2d7142,PennController,22,0,stimul2,NULL,PennController,22,_Trial_,End,1681641342318,H8396,A,59,15,name_pron,sg,"На детской площадке играл Андрей и ты.",unerg,NA,"NA",NA,NA,NA,NA,NULL
1681641352,668a973f0857ce8a16e598d96f2d7142,PennController,39,0,filler2,NULL,PennController,39,_Trial_,Start,1681641342326,H8396,F,80,17,NA,NA,"До лесной опушек добрели Федя и Митя.",NA,bad,"NA",NA,NA,NA,NA,NULL
1681641352,668a973f0857ce8a16e598d96f2d7142,PennController,39,0,filler2,NULL,Controller-AcceptabilityJudgment,AcceptabilityJudgment,До лесной опушек добрели Федя и Митя.,NULL,1681641347573,H8396,F,80,17,NA,NA,"До лесной опушек добрели Федя и Митя.",NA,bad,"NA",NA,NA,NA,NA,Any addtional parameters were appended as additional columns
# 27. Whether or not answer was correct (NULL if N/A).
# 28. Time taken to answer..
# 29. Comments.
1681641352,668a973f0857ce8a16e598d96f2d7142,PennController,39,0,filler2,NULL,Controller-AcceptabilityJudgment,AcceptabilityJudgment,NULL,2,1681641347573,H8396,F,80,17,NA,NA,"До лесной опушек добрели Федя и Митя.",NA,bad,"NA",NA,NA,NA,NA,NULL,4222,Any addtional parameters were appended as additional columns
# 27. Comments.
1681641352,668a973f0857ce8a16e598d96f2d7142,PennController,39,0,filler2,NULL,PennController,39,_Trial_,End,1681641347888,H8396,F,80,17,NA,NA,"До лесной опушек добрели Федя и Митя.",NA,bad,"NA",NA,NA,NA,NA,NULL
1681641352,668a973f0857ce8a16e598d96f2d7142,PennController,16,0,stimul2,NULL,PennController,16,_Trial_,Start,1681641347894,H8396,A,17,5,pron_name,sg,"На садовой скамейке сидел ты и Никита.",unacc,NA,"NA",NA,NA,NA,NA,NULL
1681641352,668a973f0857ce8a16e598d96f2d7142,PennController,16,0,stimul2,NULL,Controller-AcceptabilityJudgment,AcceptabilityJudgment,На садовой скамейке сидел ты и Никита.,NULL,1681641351350,H8396,A,17,5,pron_name,sg,"На садовой скамейке сидел ты и Никита.",unacc,NA,"NA",NA,NA,NA,NA,Any addtional parameters were appended as additional columns
# 27. Whether or not answer was correct (NULL if N/A).
# 28. Time taken to answer..
# 29. Comments.
1681641352,668a973f0857ce8a16e598d96f2d7142,PennController,16,0,stimul2,NULL,Controller-AcceptabilityJudgment,AcceptabilityJudgment,NULL,7,1681641351350,H8396,A,17,5,pron_name,sg,"На садовой скамейке сидел ты и Никита.",unacc,NA,"NA",NA,NA,NA,NA,NULL,2428,Any addtional parameters were appended as additional columns
# 27. Comments.
1681641352,668a973f0857ce8a16e598d96f2d7142,PennController,16,0,stimul2,NULL,PennController,16,_Trial_,End,1681641351666,H8396,A,17,5,pron_name,sg,"На садовой скамейке сидел ты и Никита.",unacc,NA,"NA",NA,NA,NA,NA,NULL
#
# Results on Sun, 16 Apr 2023 10:36:38 GMT
# USER AGENT: Mozilla/5.0 (Windows NT 10.0; Win64; x64) AppleWebKit/537.36 (KHTML, like Gecko) Chrome/110.0.0.0 YaBrowser/23.3.1.895 Yowser/2.5 Safari/537.36
# Design number was non-random = 0
#
# Columns below this comment are as follows:
# 1. Results reception time.
# 2. MD5 hash of participant's IP address.
# 3. Controller name.
# 4. Order number of item.
# 5. Inner element number.
# 6. Label.
# 7. Latin Square Group.
# 8. PennElementType.
# 9. PennElementName.
# 10. Parameter.
# 11. Value.
# 12. EventTime.
# 13. ParticipantID.
# 14. Comments.
1681641398,e63e5f4efc7de3cbcedfd11d3f7a4518,PennController,1,0,anketa,NULL,PennController,0,_Trial_,Start,1681641147670,F676,NULL
1681641398,e63e5f4efc7de3cbcedfd11d3f7a4518,PennController,1,0,anketa,NULL,TextInput,id_response,Final,Cw8xsu,1681641187187,F676,NULL
1681641398,e63e5f4efc7de3cbcedfd11d3f7a4518,PennController,1,0,anketa,NULL,TextInput,id_response,First,,1681641152807,F676,Control
1681641398,e63e5f4efc7de3cbcedfd11d3f7a4518,PennController,1,0,anketa,NULL,TextInput,age_response,Final,18,1681641187187,F676,NULL
1681641398,e63e5f4efc7de3cbcedfd11d3f7a4518,PennController,1,0,anketa,NULL,TextInput,age_response,First,,1681641153662,F676,1
1681641398,e63e5f4efc7de3cbcedfd11d3f7a4518,PennController,1,0,anketa,NULL,TextInput,gorod1_response,Final,армавир,1681641187188,F676,NULL
1681641398,e63e5f4efc7de3cbcedfd11d3f7a4518,PennController,1,0,anketa,NULL,TextInput,gorod1_response,First,,1681641170102,F676,а
1681641398,e63e5f4efc7de3cbcedfd11d3f7a4518,PennController,1,0,anketa,NULL,TextInput,gorod2_response,Final,армавир,1681641187188,F676,NULL
1681641398,e63e5f4efc7de3cbcedfd11d3f7a4518,PennController,1,0,anketa,NULL,TextInput,gorod2_response,First,,1681641172654,F676,а
1681641398,e63e5f4efc7de3cbcedfd11d3f7a4518,PennController,1,0,anketa,NULL,TextInput,lang_response,Final,,1681641187188,F676,NULL
1681641398,e63e5f4efc7de3cbcedfd11d3f7a4518,PennController,1,0,anketa,NULL,Scale,gender_response,Choice,мужской,1681641155218,F676,NULL
1681641398,e63e5f4efc7de3cbcedfd11d3f7a4518,PennController,1,0,anketa,NULL,Scale,lang_edu_response,Choice,нет,1681641175555,F676,NULL
1681641398,e63e5f4efc7de3cbcedfd11d3f7a4518,PennController,1,0,anketa,NULL,PennController,0,_Trial_,End,1681641187188,F676,NULL
# 13. Comments.
1681641398,e63e5f4efc7de3cbcedfd11d3f7a4518,PennController,2,0,instruction,NULL,PennController,1,_Trial_,Start,1681641187190,NULL
1681641398,e63e5f4efc7de3cbcedfd11d3f7a4518,PennController,2,0,instruction,NULL,Button,start,Click,Click,1681641223229,NULL
1681641398,e63e5f4efc7de3cbcedfd11d3f7a4518,PennController,2,0,instruction,NULL,PennController,1,_Trial_,End,1681641223230,NULL
# 13. ParticipantID.
# 14. group.
# 15. sentence_id.
# 16. lexicalization.
# 17. conjuncts_order.
# 18. agreement.
# 19. sentence.
# 20. predicate_type.
# 21. filler_type.
# 22. question.
# 23. answer_1.
# 24. answer_2.
# 25. answer_3.
# 26. correct_answer.
# 27. Comments.
