#
# Results on Thu, 13 Apr 2023 11:51:18 GMT
# USER AGENT: Mozilla/5.0 (Windows NT 6.1; Win64; x64; rv:109.0) Gecko/20100101 Firefox/112.0
# Design number was non-random = 0
#
# Columns below this comment are as follows:
# 1. Results reception time.
# 2. MD5 hash of participant's IP address.
# 3. Controller name.
# 4. Order number of item.
# 5. Inner element number.
# 6. Label.
# 7. Latin Square Group.
# 8. PennElementType.
# 9. PennElementName.
# 10. Parameter.
# 11. Value.
# 12. EventTime.
# 13. ParticipantID.
# 14. Comments.
1681386678,e07aced4bf5386d30b10c208bcdb6218,PennController,1,0,anketa,NULL,PennController,0,_Trial_,Start,1681386458532,X7133,NULL
1681386678,e07aced4bf5386d30b10c208bcdb6218,PennController,1,0,anketa,NULL,TextInput,age_response,First,,1681386464620,X7133,4
1681386678,e07aced4bf5386d30b10c208bcdb6218,PennController,1,0,anketa,NULL,Scale,gender_response,Choice,женский,1681386466281,X7133,NULL
1681386678,e07aced4bf5386d30b10c208bcdb6218,PennController,1,0,anketa,NULL,TextInput,gorod1_response,First,,1681386471473,X7133,Shift
1681386678,e07aced4bf5386d30b10c208bcdb6218,PennController,1,0,anketa,NULL,TextInput,gorod2_response,First,,1681386476803,X7133,Shift
1681386678,e07aced4bf5386d30b10c208bcdb6218,PennController,1,0,anketa,NULL,Scale,lang_edu_response,Choice,нет,1681386480786,X7133,NULL
1681386678,e07aced4bf5386d30b10c208bcdb6218,PennController,1,0,anketa,NULL,TextInput,id_response,Final,Vidk9X ,1681386483992,X7133,NULL
1681386678,e07aced4bf5386d30b10c208bcdb6218,PennController,1,0,anketa,NULL,TextInput,age_response,Final,41,1681386483993,X7133,NULL
1681386678,e07aced4bf5386d30b10c208bcdb6218,PennController,1,0,anketa,NULL,TextInput,gorod1_response,Final,Сочи,1681386483994,X7133,NULL
1681386678,e07aced4bf5386d30b10c208bcdb6218,PennController,1,0,anketa,NULL,TextInput,gorod2_response,Final,Кропоткин,1681386483995,X7133,NULL
1681386678,e07aced4bf5386d30b10c208bcdb6218,PennController,1,0,anketa,NULL,TextInput,lang_response,Final,,1681386483996,X7133,NULL
1681386678,e07aced4bf5386d30b10c208bcdb6218,PennController,1,0,anketa,NULL,PennController,0,_Trial_,End,1681386484000,X7133,NULL
# 13. Comments.
1681386678,e07aced4bf5386d30b10c208bcdb6218,PennController,2,0,instruction,NULL,PennController,1,_Trial_,Start,1681386484013,NULL
1681386678,e07aced4bf5386d30b10c208bcdb6218,PennController,2,0,instruction,NULL,Button,start,Click,Click,1681386513174,NULL
1681386678,e07aced4bf5386d30b10c208bcdb6218,PennController,2,0,instruction,NULL,PennController,1,_Trial_,End,1681386513180,NULL
# 13. ParticipantID.
# 14. group.
# 15. sentence_id.
# 16. lexicalization.
# 17. word_order.
# 18. agreement.
# 19. sentence.
# 20. predicate_type.
# 21. filler_type.
# 22. question.
# 23. answer_1.
# 24. answer_2.
# 25. answer_3.
# 26. correct_answer.
# 27. Comments.
1681386678,e07aced4bf5386d30b10c208bcdb6218,PennController,5,0,training_trials,NULL,PennController,5,_Trial_,Start,1681386513190,X7133,Tr,289,0,NA,NA,"За процессом следили я и Андрей.",NA,good,"NA",NA,NA,NA,NA,NULL
1681386678,e07aced4bf5386d30b10c208bcdb6218,PennController,5,0,training_trials,NULL,Controller-AcceptabilityJudgment,AcceptabilityJudgment,За процессом следили я и Андрей.,NULL,1681386518408,X7133,Tr,289,0,NA,NA,"За процессом следили я и Андрей.",NA,good,"NA",NA,NA,NA,NA,Any addtional parameters were appended as additional columns
# 27. Whether or not answer was correct (NULL if N/A).
# 28. Time taken to answer..
# 29. Comments.
1681386678,e07aced4bf5386d30b10c208bcdb6218,PennController,5,0,training_trials,NULL,Controller-AcceptabilityJudgment,AcceptabilityJudgment,NULL,7,1681386518408,X7133,Tr,289,0,NA,NA,"За процессом следили я и Андрей.",NA,good,"NA",NA,NA,NA,NA,NULL,4147,Any addtional parameters were appended as additional columns
# 27. Comments.
1681386678,e07aced4bf5386d30b10c208bcdb6218,PennController,5,0,training_trials,NULL,PennController,5,_Trial_,End,1681386518717,X7133,Tr,289,0,NA,NA,"За процессом следили я и Андрей.",NA,good,"NA",NA,NA,NA,NA,NULL
1681386678,e07aced4bf5386d30b10c208bcdb6218,PennController,6,0,training_trials,NULL,PennController,6,_Trial_,Start,1681386518722,X7133,Tr,290,0,NA,NA,"Вася и Петя выигрывали в матче.",NA,bad,"NA",NA,NA,NA,NA,NULL
1681386678,e07aced4bf5386d30b10c208bcdb6218,PennController,6,0,training_trials,NULL,Controller-AcceptabilityJudgment,AcceptabilityJudgment,Вася и Петя выигрывали в матче.,NULL,1681386524198,X7133,Tr,290,0,NA,NA,"Вася и Петя выигрывали в матче.",NA,bad,"NA",NA,NA,NA,NA,Any addtional parameters were appended as additional columns
# 27. Whether or not answer was correct (NULL if N/A).
# 28. Time taken to answer..
# 29. Comments.
1681386678,e07aced4bf5386d30b10c208bcdb6218,PennController,6,0,training_trials,NULL,Controller-AcceptabilityJudgment,AcceptabilityJudgment,NULL,7,1681386524198,X7133,Tr,290,0,NA,NA,"Вася и Петя выигрывали в матче.",NA,bad,"NA",NA,NA,NA,NA,NULL,4457,Any addtional parameters were appended as additional columns
# 27. Comments.
1681386678,e07aced4bf5386d30b10c208bcdb6218,PennController,6,0,training_trials,NULL,PennController,6,_Trial_,End,1681386524506,X7133,Tr,290,0,NA,NA,"Вася и Петя выигрывали в матче.",NA,bad,"NA",NA,NA,NA,NA,NULL
1681386678,e07aced4bf5386d30b10c208bcdb6218,PennController,7,0,training_trials,NULL,PennController,7,_Trial_,Start,1681386524512,X7133,Tr,291,0,NA,NA,"В колледже преподавали ты и Коля.",NA,good,"NA",NA,NA,NA,NA,NULL
1681386678,e07aced4bf5386d30b10c208bcdb6218,PennController,7,0,training_trials,NULL,Controller-AcceptabilityJudgment,AcceptabilityJudgment,В колледже преподавали ты и Коля.,NULL,1681386530366,X7133,Tr,291,0,NA,NA,"В колледже преподавали ты и Коля.",NA,good,"NA",NA,NA,NA,NA,Any addtional parameters were appended as additional columns
# 27. Whether or not answer was correct (NULL if N/A).
# 28. Time taken to answer..
# 29. Comments.
1681386678,e07aced4bf5386d30b10c208bcdb6218,PennController,7,0,training_trials,NULL,Controller-AcceptabilityJudgment,AcceptabilityJudgment,NULL,5,1681386530366,X7133,Tr,291,0,NA,NA,"В колледже преподавали ты и Коля.",NA,good,"NA",NA,NA,NA,NA,NULL,4822,Any addtional parameters were appended as additional columns
# 27. Comments.
1681386678,e07aced4bf5386d30b10c208bcdb6218,PennController,7,0,training_trials,NULL,PennController,7,_Trial_,End,1681386530679,X7133,Tr,291,0,NA,NA,"В колледже преподавали ты и Коля.",NA,good,"NA",NA,NA,NA,NA,NULL
# 13. Comments.
1681386678,e07aced4bf5386d30b10c208bcdb6218,PennController,3,0,start,NULL,PennController,2,_Trial_,Start,1681386530685,NULL
1681386678,e07aced4bf5386d30b10c208bcdb6218,PennController,3,0,start,NULL,Button,continue1,Click,Click,1681386532525,NULL
1681386678,e07aced4bf5386d30b10c208bcdb6218,PennController,3,0,start,NULL,PennController,2,_Trial_,End,1681386532529,NULL
# 13. ParticipantID.
# 14. group.
# 15. sentence_id.
# 16. lexicalization.
# 17. word_order.
# 18. agreement.
# 19. sentence.
# 20. predicate_type.
# 21. filler_type.
# 22. question.
# 23. answer_1.
# 24. answer_2.
# 25. answer_3.
# 26. correct_answer.
# 27. Comments.
1681386678,e07aced4bf5386d30b10c208bcdb6218,PennController,24,0,filler1,NULL,PennController,24,_Trial_,Start,1681386532535,X7133,X,67,17,NA,NA,"Володя и Кеша отдыхали на юге.",NA,good,"NA",NA,NA,NA,NA,NULL
1681386678,e07aced4bf5386d30b10c208bcdb6218,PennController,24,0,filler1,NULL,Controller-AcceptabilityJudgment,AcceptabilityJudgment,Володя и Кеша отдыхали на юге.,NULL,1681386536813,X7133,X,67,17,NA,NA,"Володя и Кеша отдыхали на юге.",NA,good,"NA",NA,NA,NA,NA,Any addtional parameters were appended as additional columns
# 27. Whether or not answer was correct (NULL if N/A).
# 28. Time taken to answer..
# 29. Comments.
1681386678,e07aced4bf5386d30b10c208bcdb6218,PennController,24,0,filler1,NULL,Controller-AcceptabilityJudgment,AcceptabilityJudgment,NULL,7,1681386536813,X7133,X,67,17,NA,NA,"Володя и Кеша отдыхали на юге.",NA,good,"NA",NA,NA,NA,NA,NULL,3259,Any addtional parameters were appended as additional columns
# 27. Comments.
1681386678,e07aced4bf5386d30b10c208bcdb6218,PennController,24,0,filler1,NULL,PennController,24,_Trial_,End,1681386537119,X7133,X,67,17,NA,NA,"Володя и Кеша отдыхали на юге.",NA,good,"NA",NA,NA,NA,NA,NULL
1681386678,e07aced4bf5386d30b10c208bcdb6218,PennController,14,0,stimul1,NULL,PennController,14,_Trial_,Start,1681386537126,X7133,A,27,7,VS,sg,"В коридоре постоял ты и Дима.",perf,NA,"NA",NA,NA,NA,NA,NULL
1681386678,e07aced4bf5386d30b10c208bcdb6218,PennController,14,0,stimul1,NULL,Controller-AcceptabilityJudgment,AcceptabilityJudgment,В коридоре постоял ты и Дима.,NULL,1681386540174,X7133,A,27,7,VS,sg,"В коридоре постоял ты и Дима.",perf,NA,"NA",NA,NA,NA,NA,Any addtional parameters were appended as additional columns
# 27. Whether or not answer was correct (NULL if N/A).
# 28. Time taken to answer..
# 29. Comments.
1681386678,e07aced4bf5386d30b10c208bcdb6218,PennController,14,0,stimul1,NULL,Controller-AcceptabilityJudgment,AcceptabilityJudgment,NULL,4,1681386540174,X7133,A,27,7,VS,sg,"В коридоре постоял ты и Дима.",perf,NA,"NA",NA,NA,NA,NA,NULL,2032,Any addtional parameters were appended as additional columns
# 27. Comments.
1681386678,e07aced4bf5386d30b10c208bcdb6218,PennController,14,0,stimul1,NULL,PennController,14,_Trial_,End,1681386540480,X7133,A,27,7,VS,sg,"В коридоре постоял ты и Дима.",perf,NA,"NA",NA,NA,NA,NA,NULL
1681386678,e07aced4bf5386d30b10c208bcdb6218,PennController,25,0,filler1,NULL,PennController,25,_Trial_,Start,1681386540484,X7133,X,73,17,NA,NA,"Андрей и Коля ушли по киоск.",NA,bad,"NA",NA,NA,NA,NA,NULL
1681386678,e07aced4bf5386d30b10c208bcdb6218,PennController,25,0,filler1,NULL,Controller-AcceptabilityJudgment,AcceptabilityJudgment,Андрей и Коля ушли по киоск.,NULL,1681386544542,X7133,X,73,17,NA,NA,"Андрей и Коля ушли по киоск.",NA,bad,"NA",NA,NA,NA,NA,Any addtional parameters were appended as additional columns
# 27. Whether or not answer was correct (NULL if N/A).
# 28. Time taken to answer..
# 29. Comments.
1681386678,e07aced4bf5386d30b10c208bcdb6218,PennController,25,0,filler1,NULL,Controller-AcceptabilityJudgment,AcceptabilityJudgment,NULL,2,1681386544542,X7133,X,73,17,NA,NA,"Андрей и Коля ушли по киоск.",NA,bad,"NA",NA,NA,NA,NA,NULL,3044,Any addtional parameters were appended as additional columns
# 27. Comments.
1681386678,e07aced4bf5386d30b10c208bcdb6218,PennController,25,0,filler1,NULL,PennController,25,_Trial_,End,1681386544851,X7133,X,73,17,NA,NA,"Андрей и Коля ушли по киоск.",NA,bad,"NA",NA,NA,NA,NA,NULL
1681386678,e07aced4bf5386d30b10c208bcdb6218,PennController,9,0,stimul1,NULL,PennController,9,_Trial_,Start,1681386544856,X7133,A,8,2,VS,pl,"В магазин шли ты и Максим.",imperf,NA,"NA",NA,NA,NA,NA,NULL
1681386678,e07aced4bf5386d30b10c208bcdb6218,PennController,9,0,stimul1,NULL,Controller-AcceptabilityJudgment,AcceptabilityJudgment,В магазин шли ты и Максим.,NULL,1681386547846,X7133,A,8,2,VS,pl,"В магазин шли ты и Максим.",imperf,NA,"NA",NA,NA,NA,NA,Any addtional parameters were appended as additional columns
# 27. Whether or not answer was correct (NULL if N/A).
# 28. Time taken to answer..
# 29. Comments.
1681386678,e07aced4bf5386d30b10c208bcdb6218,PennController,9,0,stimul1,NULL,Controller-AcceptabilityJudgment,AcceptabilityJudgment,NULL,4,1681386547846,X7133,A,8,2,VS,pl,"В магазин шли ты и Максим.",imperf,NA,"NA",NA,NA,NA,NA,NULL,1977,Any addtional parameters were appended as additional columns
# 27. Comments.
1681386678,e07aced4bf5386d30b10c208bcdb6218,PennController,9,0,stimul1,NULL,PennController,9,_Trial_,End,1681386548152,X7133,A,8,2,VS,pl,"В магазин шли ты и Максим.",imperf,NA,"NA",NA,NA,NA,NA,NULL
1681386678,e07aced4bf5386d30b10c208bcdb6218,PennController,26,0,filler1,NULL,PennController,26,_Trial_,Start,1681386548155,X7133,X,68,17,NA,NA,"На машине ездили Илья и Лёва.",NA,good,"NA",NA,NA,NA,NA,NULL
1681386678,e07aced4bf5386d30b10c208bcdb6218,PennController,26,0,filler1,NULL,Controller-AcceptabilityJudgment,AcceptabilityJudgment,На машине ездили Илья и Лёва.,NULL,1681386552150,X7133,X,68,17,NA,NA,"На машине ездили Илья и Лёва.",NA,good,"NA",NA,NA,NA,NA,Any addtional parameters were appended as additional columns
# 27. Whether or not answer was correct (NULL if N/A).
# 28. Time taken to answer..
# 29. Comments.
1681386678,e07aced4bf5386d30b10c208bcdb6218,PennController,26,0,filler1,NULL,Controller-AcceptabilityJudgment,AcceptabilityJudgment,NULL,7,1681386552150,X7133,X,68,17,NA,NA,"На машине ездили Илья и Лёва.",NA,good,"NA",NA,NA,NA,NA,NULL,2981,Any addtional parameters were appended as additional columns
# 27. Comments.
1681386678,e07aced4bf5386d30b10c208bcdb6218,PennController,26,0,filler1,NULL,PennController,26,_Trial_,End,1681386552456,X7133,X,68,17,NA,NA,"На машине ездили Илья и Лёва.",NA,good,"NA",NA,NA,NA,NA,NULL
1681386678,e07aced4bf5386d30b10c208bcdb6218,PennController,13,0,stimul1,NULL,PennController,13,_Trial_,Start,1681386552460,X7133,A,24,6,VS,pl,"В саду играли ты и Паша.",imperf,NA,"NA",NA,NA,NA,NA,NULL
1681386678,e07aced4bf5386d30b10c208bcdb6218,PennController,13,0,stimul1,NULL,Controller-AcceptabilityJudgment,AcceptabilityJudgment,В саду играли ты и Паша.,NULL,1681386555479,X7133,A,24,6,VS,pl,"В саду играли ты и Паша.",imperf,NA,"NA",NA,NA,NA,NA,Any addtional parameters were appended as additional columns
# 27. Whether or not answer was correct (NULL if N/A).
# 28. Time taken to answer..
# 29. Comments.
1681386678,e07aced4bf5386d30b10c208bcdb6218,PennController,13,0,stimul1,NULL,Controller-AcceptabilityJudgment,AcceptabilityJudgment,NULL,4,1681386555479,X7133,A,24,6,VS,pl,"В саду играли ты и Паша.",imperf,NA,"NA",NA,NA,NA,NA,NULL,2004,Any addtional parameters were appended as additional columns
# 27. Comments.
1681386678,e07aced4bf5386d30b10c208bcdb6218,PennController,13,0,stimul1,NULL,PennController,13,_Trial_,End,1681386555785,X7133,A,24,6,VS,pl,"В саду играли ты и Паша.",imperf,NA,"NA",NA,NA,NA,NA,NULL
1681386678,e07aced4bf5386d30b10c208bcdb6218,PennController,27,0,filler1,NULL,PennController,27,_Trial_,Start,1681386555787,X7133,X,74,17,NA,NA,"На коридоре болтали Кеша и Егор.",NA,bad,"NA",NA,NA,NA,NA,NULL
1681386678,e07aced4bf5386d30b10c208bcdb6218,PennController,27,0,filler1,NULL,Controller-AcceptabilityJudgment,AcceptabilityJudgment,На коридоре болтали Кеша и Егор.,NULL,1681386561406,X7133,X,74,17,NA,NA,"На коридоре болтали Кеша и Егор.",NA,bad,"NA",NA,NA,NA,NA,Any addtional parameters were appended as additional columns
# 27. Whether or not answer was correct (NULL if N/A).
# 28. Time taken to answer..
# 29. Comments.
1681386678,e07aced4bf5386d30b10c208bcdb6218,PennController,27,0,filler1,NULL,Controller-AcceptabilityJudgment,AcceptabilityJudgment,NULL,1,1681386561406,X7133,X,74,17,NA,NA,"На коридоре болтали Кеша и Егор.",NA,bad,"NA",NA,NA,NA,NA,NULL,4606,Any addtional parameters were appended as additional columns
# 27. Comments.
1681386678,e07aced4bf5386d30b10c208bcdb6218,PennController,27,0,filler1,NULL,PennController,27,_Trial_,End,1681386561712,X7133,X,74,17,NA,NA,"На коридоре болтали Кеша и Егор.",NA,bad,"NA",NA,NA,NA,NA,NULL
1681386678,e07aced4bf5386d30b10c208bcdb6218,PennController,8,0,stimul1,NULL,PennController,8,_Trial_,Start,1681386561716,X7133,A,1,1,SV,sg,"Ты и Вася пришёл на вечеринку.",perf,NA,"NA",NA,NA,NA,NA,NULL
1681386678,e07aced4bf5386d30b10c208bcdb6218,PennController,8,0,stimul1,NULL,Controller-AcceptabilityJudgment,AcceptabilityJudgment,Ты и Вася пришёл на вечеринку.,NULL,1681386567876,X7133,A,1,1,SV,sg,"Ты и Вася пришёл на вечеринку.",perf,NA,"NA",NA,NA,NA,NA,Any addtional parameters were appended as additional columns
# 27. Whether or not answer was correct (NULL if N/A).
# 28. Time taken to answer..
# 29. Comments.
1681386678,e07aced4bf5386d30b10c208bcdb6218,PennController,8,0,stimul1,NULL,Controller-AcceptabilityJudgment,AcceptabilityJudgment,NULL,3,1681386567876,X7133,A,1,1,SV,sg,"Ты и Вася пришёл на вечеринку.",perf,NA,"NA",NA,NA,NA,NA,NULL,5148,Any addtional parameters were appended as additional columns
# 27. Comments.
1681386678,e07aced4bf5386d30b10c208bcdb6218,PennController,8,0,stimul1,NULL,PennController,8,_Trial_,End,1681386568185,X7133,A,1,1,SV,sg,"Ты и Вася пришёл на вечеринку.",perf,NA,"NA",NA,NA,NA,NA,NULL
1681386678,e07aced4bf5386d30b10c208bcdb6218,PennController,28,0,filler1,NULL,PennController,28,_Trial_,Start,1681386568188,X7133,X,65,17,NA,NA,"Петя и Вася ходили в школу.",NA,good,"Куда ходили Петя и Вася?",В школу,В кафе,В театр,В школу,NULL
1681386678,e07aced4bf5386d30b10c208bcdb6218,PennController,28,0,filler1,NULL,Controller-AcceptabilityJudgment,AcceptabilityJudgment,Петя и Вася ходили в школу.,NULL,1681386571612,X7133,X,65,17,NA,NA,"Петя и Вася ходили в школу.",NA,good,"Куда ходили Петя и Вася?",В школу,В кафе,В театр,В школу,Any addtional parameters were appended as additional columns
# 27. Whether or not answer was correct (NULL if N/A).
# 28. Time taken to answer..
# 29. Comments.
1681386678,e07aced4bf5386d30b10c208bcdb6218,PennController,28,0,filler1,NULL,Controller-AcceptabilityJudgment,AcceptabilityJudgment,NULL,7,1681386571612,X7133,X,65,17,NA,NA,"Петя и Вася ходили в школу.",NA,good,"Куда ходили Петя и Вася?",В школу,В кафе,В театр,В школу,NULL,2413,Any addtional parameters were appended as additional columns
1681386678,e07aced4bf5386d30b10c208bcdb6218,PennController,28,0,filler1,NULL,Controller-Question,Question,Куда ходили Петя и Вася?,В школу,1681386574115,X7133,X,65,17,NA,NA,"Петя и Вася ходили в школу.",NA,good,"Куда ходили Петя и Вася?",В школу,В кафе,В театр,В школу,1,2127,Any addtional parameters were appended as additional columns
# 27. Comments.
1681386678,e07aced4bf5386d30b10c208bcdb6218,PennController,28,0,filler1,NULL,PennController,28,_Trial_,End,1681386574119,X7133,X,65,17,NA,NA,"Петя и Вася ходили в школу.",NA,good,"Куда ходили Петя и Вася?",В школу,В кафе,В театр,В школу,NULL
1681386678,e07aced4bf5386d30b10c208bcdb6218,PennController,10,0,stimul1,NULL,PennController,10,_Trial_,Start,1681386574121,X7133,A,11,3,VS,sg,"В зале подмёл ты и Вова.",perf,NA,"NA",NA,NA,NA,NA,NULL
1681386678,e07aced4bf5386d30b10c208bcdb6218,PennController,10,0,stimul1,NULL,Controller-AcceptabilityJudgment,AcceptabilityJudgment,В зале подмёл ты и Вова.,NULL,1681386578556,X7133,A,11,3,VS,sg,"В зале подмёл ты и Вова.",perf,NA,"NA",NA,NA,NA,NA,Any addtional parameters were appended as additional columns
# 27. Whether or not answer was correct (NULL if N/A).
# 28. Time taken to answer..
# 29. Comments.
1681386678,e07aced4bf5386d30b10c208bcdb6218,PennController,10,0,stimul1,NULL,Controller-AcceptabilityJudgment,AcceptabilityJudgment,NULL,4,1681386578556,X7133,A,11,3,VS,sg,"В зале подмёл ты и Вова.",perf,NA,"NA",NA,NA,NA,NA,NULL,3424,Any addtional parameters were appended as additional columns
# 27. Comments.
1681386678,e07aced4bf5386d30b10c208bcdb6218,PennController,10,0,stimul1,NULL,PennController,10,_Trial_,End,1681386578868,X7133,A,11,3,VS,sg,"В зале подмёл ты и Вова.",perf,NA,"NA",NA,NA,NA,NA,NULL
1681386678,e07aced4bf5386d30b10c208bcdb6218,PennController,29,0,filler1,NULL,PennController,29,_Trial_,Start,1681386578871,X7133,X,75,17,NA,NA,"Кирилл и Федя бродили на лес.",NA,bad,"NA",NA,NA,NA,NA,NULL
1681386678,e07aced4bf5386d30b10c208bcdb6218,PennController,29,0,filler1,NULL,Controller-AcceptabilityJudgment,AcceptabilityJudgment,Кирилл и Федя бродили на лес.,NULL,1681386583293,X7133,X,75,17,NA,NA,"Кирилл и Федя бродили на лес.",NA,bad,"NA",NA,NA,NA,NA,Any addtional parameters were appended as additional columns
# 27. Whether or not answer was correct (NULL if N/A).
# 28. Time taken to answer..
# 29. Comments.
1681386678,e07aced4bf5386d30b10c208bcdb6218,PennController,29,0,filler1,NULL,Controller-AcceptabilityJudgment,AcceptabilityJudgment,NULL,1,1681386583293,X7133,X,75,17,NA,NA,"Кирилл и Федя бродили на лес.",NA,bad,"NA",NA,NA,NA,NA,NULL,3402,Any addtional parameters were appended as additional columns
# 27. Comments.
1681386678,e07aced4bf5386d30b10c208bcdb6218,PennController,29,0,filler1,NULL,PennController,29,_Trial_,End,1681386583601,X7133,X,75,17,NA,NA,"Кирилл и Федя бродили на лес.",NA,bad,"NA",NA,NA,NA,NA,NULL
1681386678,e07aced4bf5386d30b10c208bcdb6218,PennController,12,0,stimul1,NULL,PennController,12,_Trial_,Start,1681386583604,X7133,A,17,5,SV,sg,"Ты и Никита сыграл в спектакле.",perf,NA,"NA",NA,NA,NA,NA,NULL
1681386678,e07aced4bf5386d30b10c208bcdb6218,PennController,12,0,stimul1,NULL,Controller-AcceptabilityJudgment,AcceptabilityJudgment,Ты и Никита сыграл в спектакле.,NULL,1681386589099,X7133,A,17,5,SV,sg,"Ты и Никита сыграл в спектакле.",perf,NA,"NA",NA,NA,NA,NA,Any addtional parameters were appended as additional columns
# 27. Whether or not answer was correct (NULL if N/A).
# 28. Time taken to answer..
# 29. Comments.
1681386678,e07aced4bf5386d30b10c208bcdb6218,PennController,12,0,stimul1,NULL,Controller-AcceptabilityJudgment,AcceptabilityJudgment,NULL,3,1681386589099,X7133,A,17,5,SV,sg,"Ты и Никита сыграл в спектакле.",perf,NA,"NA",NA,NA,NA,NA,NULL,4485,Any addtional parameters were appended as additional columns
# 27. Comments.
1681386678,e07aced4bf5386d30b10c208bcdb6218,PennController,12,0,stimul1,NULL,PennController,12,_Trial_,End,1681386589404,X7133,A,17,5,SV,sg,"Ты и Никита сыграл в спектакле.",perf,NA,"NA",NA,NA,NA,NA,NULL
1681386678,e07aced4bf5386d30b10c208bcdb6218,PennController,30,0,filler1,NULL,PennController,30,_Trial_,Start,1681386589408,X7133,X,69,17,NA,NA,"Гриша и Слава пошли на дискотеку.",NA,good,"NA",NA,NA,NA,NA,NULL
1681386678,e07aced4bf5386d30b10c208bcdb6218,PennController,30,0,filler1,NULL,Controller-AcceptabilityJudgment,AcceptabilityJudgment,Гриша и Слава пошли на дискотеку.,NULL,1681386593067,X7133,X,69,17,NA,NA,"Гриша и Слава пошли на дискотеку.",NA,good,"NA",NA,NA,NA,NA,Any addtional parameters were appended as additional columns
# 27. Whether or not answer was correct (NULL if N/A).
# 28. Time taken to answer..
# 29. Comments.
1681386678,e07aced4bf5386d30b10c208bcdb6218,PennController,30,0,filler1,NULL,Controller-AcceptabilityJudgment,AcceptabilityJudgment,NULL,7,1681386593067,X7133,X,69,17,NA,NA,"Гриша и Слава пошли на дискотеку.",NA,good,"NA",NA,NA,NA,NA,NULL,2647,Any addtional parameters were appended as additional columns
# 27. Comments.
1681386678,e07aced4bf5386d30b10c208bcdb6218,PennController,30,0,filler1,NULL,PennController,30,_Trial_,End,1681386593372,X7133,X,69,17,NA,NA,"Гриша и Слава пошли на дискотеку.",NA,good,"NA",NA,NA,NA,NA,NULL
1681386678,e07aced4bf5386d30b10c208bcdb6218,PennController,11,0,stimul1,NULL,PennController,11,_Trial_,Start,1681386593378,X7133,A,14,4,SV,pl,"Ты и Ваня подметали на кухне.",imperf,NA,"NA",NA,NA,NA,NA,NULL
1681386678,e07aced4bf5386d30b10c208bcdb6218,PennController,11,0,stimul1,NULL,Controller-AcceptabilityJudgment,AcceptabilityJudgment,Ты и Ваня подметали на кухне.,NULL,1681386597244,X7133,A,14,4,SV,pl,"Ты и Ваня подметали на кухне.",imperf,NA,"NA",NA,NA,NA,NA,Any addtional parameters were appended as additional columns
# 27. Whether or not answer was correct (NULL if N/A).
# 28. Time taken to answer..
# 29. Comments.
1681386678,e07aced4bf5386d30b10c208bcdb6218,PennController,11,0,stimul1,NULL,Controller-AcceptabilityJudgment,AcceptabilityJudgment,NULL,3,1681386597244,X7133,A,14,4,SV,pl,"Ты и Ваня подметали на кухне.",imperf,NA,"NA",NA,NA,NA,NA,NULL,2852,Any addtional parameters were appended as additional columns
# 27. Comments.
1681386678,e07aced4bf5386d30b10c208bcdb6218,PennController,11,0,stimul1,NULL,PennController,11,_Trial_,End,1681386597548,X7133,A,14,4,SV,pl,"Ты и Ваня подметали на кухне.",imperf,NA,"NA",NA,NA,NA,NA,NULL
1681386678,e07aced4bf5386d30b10c208bcdb6218,PennController,31,0,filler1,NULL,PennController,31,_Trial_,Start,1681386597551,X7133,X,76,17,NA,NA,"В улице разговаривали Максим и Гена.",NA,bad,"NA",NA,NA,NA,NA,NULL
1681386678,e07aced4bf5386d30b10c208bcdb6218,PennController,31,0,filler1,NULL,Controller-AcceptabilityJudgment,AcceptabilityJudgment,В улице разговаривали Максим и Гена.,NULL,1681386600530,X7133,X,76,17,NA,NA,"В улице разговаривали Максим и Гена.",NA,bad,"NA",NA,NA,NA,NA,Any addtional parameters were appended as additional columns
# 27. Whether or not answer was correct (NULL if N/A).
# 28. Time taken to answer..
# 29. Comments.
1681386678,e07aced4bf5386d30b10c208bcdb6218,PennController,31,0,filler1,NULL,Controller-AcceptabilityJudgment,AcceptabilityJudgment,NULL,1,1681386600530,X7133,X,76,17,NA,NA,"В улице разговаривали Максим и Гена.",NA,bad,"NA",NA,NA,NA,NA,NULL,1970,Any addtional parameters were appended as additional columns
# 27. Comments.
1681386678,e07aced4bf5386d30b10c208bcdb6218,PennController,31,0,filler1,NULL,PennController,31,_Trial_,End,1681386600837,X7133,X,76,17,NA,NA,"В улице разговаривали Максим и Гена.",NA,bad,"NA",NA,NA,NA,NA,NULL
1681386678,e07aced4bf5386d30b10c208bcdb6218,PennController,15,0,stimul1,NULL,PennController,15,_Trial_,Start,1681386600839,X7133,A,30,8,SV,pl,"Ты и Володя стояли на мосту.",imperf,NA,"NA",NA,NA,NA,NA,NULL
1681386678,e07aced4bf5386d30b10c208bcdb6218,PennController,15,0,stimul1,NULL,Controller-AcceptabilityJudgment,AcceptabilityJudgment,Ты и Володя стояли на мосту.,NULL,1681386603699,X7133,A,30,8,SV,pl,"Ты и Володя стояли на мосту.",imperf,NA,"NA",NA,NA,NA,NA,Any addtional parameters were appended as additional columns
# 27. Whether or not answer was correct (NULL if N/A).
# 28. Time taken to answer..
# 29. Comments.
1681386678,e07aced4bf5386d30b10c208bcdb6218,PennController,15,0,stimul1,NULL,Controller-AcceptabilityJudgment,AcceptabilityJudgment,NULL,3,1681386603699,X7133,A,30,8,SV,pl,"Ты и Володя стояли на мосту.",imperf,NA,"NA",NA,NA,NA,NA,NULL,1849,Any addtional parameters were appended as additional columns
# 27. Comments.
1681386678,e07aced4bf5386d30b10c208bcdb6218,PennController,15,0,stimul1,NULL,PennController,15,_Trial_,End,1681386604004,X7133,A,30,8,SV,pl,"Ты и Володя стояли на мосту.",imperf,NA,"NA",NA,NA,NA,NA,NULL
# 13. Comments.
1681386678,e07aced4bf5386d30b10c208bcdb6218,PennController,4,0,break,NULL,PennController,3,_Trial_,Start,1681386604008,NULL
1681386678,e07aced4bf5386d30b10c208bcdb6218,PennController,4,0,break,NULL,Button,continue2,Click,Click,1681386607305,NULL
1681386678,e07aced4bf5386d30b10c208bcdb6218,PennController,4,0,break,NULL,PennController,3,_Trial_,End,1681386607307,NULL
# 13. ParticipantID.
# 14. group.
# 15. sentence_id.
# 16. lexicalization.
# 17. word_order.
# 18. agreement.
# 19. sentence.
# 20. predicate_type.
# 21. filler_type.
# 22. question.
# 23. answer_1.
# 24. answer_2.
# 25. answer_3.
# 26. correct_answer.
# 27. Comments.
1681386678,e07aced4bf5386d30b10c208bcdb6218,PennController,16,0,stimul2,NULL,PennController,16,_Trial_,Start,1681386607310,X7133,A,33,9,SV,sg,"Ты и Вадим доплыл до финиша.",perf,NA,"NA",NA,NA,NA,NA,NULL
1681386678,e07aced4bf5386d30b10c208bcdb6218,PennController,16,0,stimul2,NULL,Controller-AcceptabilityJudgment,AcceptabilityJudgment,Ты и Вадим доплыл до финиша.,NULL,1681386610050,X7133,A,33,9,SV,sg,"Ты и Вадим доплыл до финиша.",perf,NA,"NA",NA,NA,NA,NA,Any addtional parameters were appended as additional columns
# 27. Whether or not answer was correct (NULL if N/A).
# 28. Time taken to answer..
# 29. Comments.
1681386678,e07aced4bf5386d30b10c208bcdb6218,PennController,16,0,stimul2,NULL,Controller-AcceptabilityJudgment,AcceptabilityJudgment,NULL,3,1681386610050,X7133,A,33,9,SV,sg,"Ты и Вадим доплыл до финиша.",perf,NA,"NA",NA,NA,NA,NA,NULL,1730,Any addtional parameters were appended as additional columns
# 27. Comments.
1681386678,e07aced4bf5386d30b10c208bcdb6218,PennController,16,0,stimul2,NULL,PennController,16,_Trial_,End,1681386610353,X7133,A,33,9,SV,sg,"Ты и Вадим доплыл до финиша.",perf,NA,"NA",NA,NA,NA,NA,NULL
1681386678,e07aced4bf5386d30b10c208bcdb6218,PennController,32,0,filler2,NULL,PennController,32,_Trial_,Start,1681386610357,X7133,X,70,17,NA,NA,"В университет поступили Лёва и Денис.",NA,good,"NA",NA,NA,NA,NA,NULL
1681386678,e07aced4bf5386d30b10c208bcdb6218,PennController,32,0,filler2,NULL,Controller-AcceptabilityJudgment,AcceptabilityJudgment,В университет поступили Лёва и Денис.,NULL,1681386613689,X7133,X,70,17,NA,NA,"В университет поступили Лёва и Денис.",NA,good,"NA",NA,NA,NA,NA,Any addtional parameters were appended as additional columns
# 27. Whether or not answer was correct (NULL if N/A).
# 28. Time taken to answer..
# 29. Comments.
1681386678,e07aced4bf5386d30b10c208bcdb6218,PennController,32,0,filler2,NULL,Controller-AcceptabilityJudgment,AcceptabilityJudgment,NULL,7,1681386613689,X7133,X,70,17,NA,NA,"В университет поступили Лёва и Денис.",NA,good,"NA",NA,NA,NA,NA,NULL,2321,Any addtional parameters were appended as additional columns
# 27. Comments.
1681386678,e07aced4bf5386d30b10c208bcdb6218,PennController,32,0,filler2,NULL,PennController,32,_Trial_,End,1681386613996,X7133,X,70,17,NA,NA,"В университет поступили Лёва и Денис.",NA,good,"NA",NA,NA,NA,NA,NULL
1681386678,e07aced4bf5386d30b10c208bcdb6218,PennController,20,0,stimul2,NULL,PennController,20,_Trial_,Start,1681386613999,X7133,A,49,13,SV,sg,"Ты и Данила спел на банкете.",perf,NA,"NA",NA,NA,NA,NA,NULL
1681386678,e07aced4bf5386d30b10c208bcdb6218,PennController,20,0,stimul2,NULL,Controller-AcceptabilityJudgment,AcceptabilityJudgment,Ты и Данила спел на банкете.,NULL,1681386619593,X7133,A,49,13,SV,sg,"Ты и Данила спел на банкете.",perf,NA,"NA",NA,NA,NA,NA,Any addtional parameters were appended as additional columns
# 27. Whether or not answer was correct (NULL if N/A).
# 28. Time taken to answer..
# 29. Comments.
1681386678,e07aced4bf5386d30b10c208bcdb6218,PennController,20,0,stimul2,NULL,Controller-AcceptabilityJudgment,AcceptabilityJudgment,NULL,3,1681386619593,X7133,A,49,13,SV,sg,"Ты и Данила спел на банкете.",perf,NA,"NA",NA,NA,NA,NA,NULL,4584,Any addtional parameters were appended as additional columns
# 27. Comments.
1681386678,e07aced4bf5386d30b10c208bcdb6218,PennController,20,0,stimul2,NULL,PennController,20,_Trial_,End,1681386619900,X7133,A,49,13,SV,sg,"Ты и Данила спел на банкете.",perf,NA,"NA",NA,NA,NA,NA,NULL
1681386678,e07aced4bf5386d30b10c208bcdb6218,PennController,33,0,filler2,NULL,PennController,33,_Trial_,Start,1681386619902,X7133,X,77,17,NA,NA,"Вова и Серёжа нырнули над прорубь.",NA,bad,"NA",NA,NA,NA,NA,NULL
1681386678,e07aced4bf5386d30b10c208bcdb6218,PennController,33,0,filler2,NULL,Controller-AcceptabilityJudgment,AcceptabilityJudgment,Вова и Серёжа нырнули над прорубь.,NULL,1681386624424,X7133,X,77,17,NA,NA,"Вова и Серёжа нырнули над прорубь.",NA,bad,"NA",NA,NA,NA,NA,Any addtional parameters were appended as additional columns
# 27. Whether or not answer was correct (NULL if N/A).
# 28. Time taken to answer..
# 29. Comments.
1681386678,e07aced4bf5386d30b10c208bcdb6218,PennController,33,0,filler2,NULL,Controller-AcceptabilityJudgment,AcceptabilityJudgment,NULL,1,1681386624424,X7133,X,77,17,NA,NA,"Вова и Серёжа нырнули над прорубь.",NA,bad,"NA",NA,NA,NA,NA,NULL,3513,Any addtional parameters were appended as additional columns
# 27. Comments.
1681386678,e07aced4bf5386d30b10c208bcdb6218,PennController,33,0,filler2,NULL,PennController,33,_Trial_,End,1681386624732,X7133,X,77,17,NA,NA,"Вова и Серёжа нырнули над прорубь.",NA,bad,"NA",NA,NA,NA,NA,NULL
1681386678,e07aced4bf5386d30b10c208bcdb6218,PennController,18,0,stimul2,NULL,PennController,18,_Trial_,Start,1681386624735,X7133,A,43,11,VS,sg,"В прихожей подождал ты и Кирилл.",perf,NA,"NA",NA,NA,NA,NA,NULL
1681386678,e07aced4bf5386d30b10c208bcdb6218,PennController,18,0,stimul2,NULL,Controller-AcceptabilityJudgment,AcceptabilityJudgment,В прихожей подождал ты и Кирилл.,NULL,1681386628169,X7133,A,43,11,VS,sg,"В прихожей подождал ты и Кирилл.",perf,NA,"NA",NA,NA,NA,NA,Any addtional parameters were appended as additional columns
# 27. Whether or not answer was correct (NULL if N/A).
# 28. Time taken to answer..
# 29. Comments.
1681386678,e07aced4bf5386d30b10c208bcdb6218,PennController,18,0,stimul2,NULL,Controller-AcceptabilityJudgment,AcceptabilityJudgment,NULL,3,1681386628169,X7133,A,43,11,VS,sg,"В прихожей подождал ты и Кирилл.",perf,NA,"NA",NA,NA,NA,NA,NULL,2426,Any addtional parameters were appended as additional columns
# 27. Comments.
1681386678,e07aced4bf5386d30b10c208bcdb6218,PennController,18,0,stimul2,NULL,PennController,18,_Trial_,End,1681386628475,X7133,A,43,11,VS,sg,"В прихожей подождал ты и Кирилл.",perf,NA,"NA",NA,NA,NA,NA,NULL
1681386678,e07aced4bf5386d30b10c208bcdb6218,PennController,34,0,filler2,NULL,PennController,34,_Trial_,Start,1681386628478,X7133,X,66,17,NA,NA,"В Москве жили Ваня и Коля.",NA,good,"Где жили Ваня и Коля?",В Ижевске,В Казани,В Москве,В Москве,NULL
1681386678,e07aced4bf5386d30b10c208bcdb6218,PennController,34,0,filler2,NULL,Controller-AcceptabilityJudgment,AcceptabilityJudgment,В Москве жили Ваня и Коля.,NULL,1681386631400,X7133,X,66,17,NA,NA,"В Москве жили Ваня и Коля.",NA,good,"Где жили Ваня и Коля?",В Ижевске,В Казани,В Москве,В Москве,Any addtional parameters were appended as additional columns
# 27. Whether or not answer was correct (NULL if N/A).
# 28. Time taken to answer..
# 29. Comments.
1681386678,e07aced4bf5386d30b10c208bcdb6218,PennController,34,0,filler2,NULL,Controller-AcceptabilityJudgment,AcceptabilityJudgment,NULL,7,1681386631400,X7133,X,66,17,NA,NA,"В Москве жили Ваня и Коля.",NA,good,"Где жили Ваня и Коля?",В Ижевске,В Казани,В Москве,В Москве,NULL,1912,Any addtional parameters were appended as additional columns
1681386678,e07aced4bf5386d30b10c208bcdb6218,PennController,34,0,filler2,NULL,Controller-Question,Question,Где жили Ваня и Коля?,В Москве,1681386633578,X7133,X,66,17,NA,NA,"В Москве жили Ваня и Коля.",NA,good,"Где жили Ваня и Коля?",В Ижевске,В Казани,В Москве,В Москве,1,1870,Any addtional parameters were appended as additional columns
# 27. Comments.
1681386678,e07aced4bf5386d30b10c208bcdb6218,PennController,34,0,filler2,NULL,PennController,34,_Trial_,End,1681386633581,X7133,X,66,17,NA,NA,"В Москве жили Ваня и Коля.",NA,good,"Где жили Ваня и Коля?",В Ижевске,В Казани,В Москве,В Москве,NULL
1681386678,e07aced4bf5386d30b10c208bcdb6218,PennController,21,0,stimul2,NULL,PennController,21,_Trial_,Start,1681386633583,X7133,A,56,14,VS,pl,"На концерте пели ты и Витя.",imperf,NA,"NA",NA,NA,NA,NA,NULL
1681386678,e07aced4bf5386d30b10c208bcdb6218,PennController,21,0,stimul2,NULL,Controller-AcceptabilityJudgment,AcceptabilityJudgment,На концерте пели ты и Витя.,NULL,1681386637112,X7133,A,56,14,VS,pl,"На концерте пели ты и Витя.",imperf,NA,"NA",NA,NA,NA,NA,Any addtional parameters were appended as additional columns
# 27. Whether or not answer was correct (NULL if N/A).
# 28. Time taken to answer..
# 29. Comments.
1681386678,e07aced4bf5386d30b10c208bcdb6218,PennController,21,0,stimul2,NULL,Controller-AcceptabilityJudgment,AcceptabilityJudgment,NULL,3,1681386637112,X7133,A,56,14,VS,pl,"На концерте пели ты и Витя.",imperf,NA,"NA",NA,NA,NA,NA,NULL,2519,Any addtional parameters were appended as additional columns
# 27. Comments.
1681386678,e07aced4bf5386d30b10c208bcdb6218,PennController,21,0,stimul2,NULL,PennController,21,_Trial_,End,1681386637417,X7133,A,56,14,VS,pl,"На концерте пели ты и Витя.",imperf,NA,"NA",NA,NA,NA,NA,NULL
1681386678,e07aced4bf5386d30b10c208bcdb6218,PennController,35,0,filler2,NULL,PennController,35,_Trial_,Start,1681386637420,X7133,X,78,17,NA,NA,"По финал вышли Артём и Дима.",NA,bad,"NA",NA,NA,NA,NA,NULL
1681386678,e07aced4bf5386d30b10c208bcdb6218,PennController,35,0,filler2,NULL,Controller-AcceptabilityJudgment,AcceptabilityJudgment,По финал вышли Артём и Дима.,NULL,1681386640656,X7133,X,78,17,NA,NA,"По финал вышли Артём и Дима.",NA,bad,"NA",NA,NA,NA,NA,Any addtional parameters were appended as additional columns
# 27. Whether or not answer was correct (NULL if N/A).
# 28. Time taken to answer..
# 29. Comments.
1681386678,e07aced4bf5386d30b10c208bcdb6218,PennController,35,0,filler2,NULL,Controller-AcceptabilityJudgment,AcceptabilityJudgment,NULL,1,1681386640656,X7133,X,78,17,NA,NA,"По финал вышли Артём и Дима.",NA,bad,"NA",NA,NA,NA,NA,NULL,2226,Any addtional parameters were appended as additional columns
# 27. Comments.
1681386678,e07aced4bf5386d30b10c208bcdb6218,PennController,35,0,filler2,NULL,PennController,35,_Trial_,End,1681386640963,X7133,X,78,17,NA,NA,"По финал вышли Артём и Дима.",NA,bad,"NA",NA,NA,NA,NA,NULL
1681386678,e07aced4bf5386d30b10c208bcdb6218,PennController,22,0,stimul2,NULL,PennController,22,_Trial_,Start,1681386640965,X7133,A,59,15,VS,sg,"За стол сел ты и Гриша.",perf,NA,"NA",NA,NA,NA,NA,NULL
1681386678,e07aced4bf5386d30b10c208bcdb6218,PennController,22,0,stimul2,NULL,Controller-AcceptabilityJudgment,AcceptabilityJudgment,За стол сел ты и Гриша.,NULL,1681386644753,X7133,A,59,15,VS,sg,"За стол сел ты и Гриша.",perf,NA,"NA",NA,NA,NA,NA,Any addtional parameters were appended as additional columns
# 27. Whether or not answer was correct (NULL if N/A).
# 28. Time taken to answer..
# 29. Comments.
1681386678,e07aced4bf5386d30b10c208bcdb6218,PennController,22,0,stimul2,NULL,Controller-AcceptabilityJudgment,AcceptabilityJudgment,NULL,3,1681386644753,X7133,A,59,15,VS,sg,"За стол сел ты и Гриша.",perf,NA,"NA",NA,NA,NA,NA,NULL,2780,Any addtional parameters were appended as additional columns
# 27. Comments.
1681386678,e07aced4bf5386d30b10c208bcdb6218,PennController,22,0,stimul2,NULL,PennController,22,_Trial_,End,1681386645059,X7133,A,59,15,VS,sg,"За стол сел ты и Гриша.",perf,NA,"NA",NA,NA,NA,NA,NULL
1681386678,e07aced4bf5386d30b10c208bcdb6218,PennController,36,0,filler2,NULL,PennController,36,_Trial_,Start,1681386645062,X7133,X,71,17,NA,NA,"Лёша и Вася заплатили в кассе.",NA,good,"NA",NA,NA,NA,NA,NULL
1681386678,e07aced4bf5386d30b10c208bcdb6218,PennController,36,0,filler2,NULL,Controller-AcceptabilityJudgment,AcceptabilityJudgment,Лёша и Вася заплатили в кассе.,NULL,1681386648239,X7133,X,71,17,NA,NA,"Лёша и Вася заплатили в кассе.",NA,good,"NA",NA,NA,NA,NA,Any addtional parameters were appended as additional columns
# 27. Whether or not answer was correct (NULL if N/A).
# 28. Time taken to answer..
# 29. Comments.
1681386678,e07aced4bf5386d30b10c208bcdb6218,PennController,36,0,filler2,NULL,Controller-AcceptabilityJudgment,AcceptabilityJudgment,NULL,7,1681386648239,X7133,X,71,17,NA,NA,"Лёша и Вася заплатили в кассе.",NA,good,"NA",NA,NA,NA,NA,NULL,2167,Any addtional parameters were appended as additional columns
# 27. Comments.
1681386678,e07aced4bf5386d30b10c208bcdb6218,PennController,36,0,filler2,NULL,PennController,36,_Trial_,End,1681386648548,X7133,X,71,17,NA,NA,"Лёша и Вася заплатили в кассе.",NA,good,"NA",NA,NA,NA,NA,NULL
1681386678,e07aced4bf5386d30b10c208bcdb6218,PennController,23,0,stimul2,NULL,PennController,23,_Trial_,Start,1681386648550,X7133,A,62,16,SV,pl,"Ты и Яша сидели в кафе.",imperf,NA,"NA",NA,NA,NA,NA,NULL
1681386678,e07aced4bf5386d30b10c208bcdb6218,PennController,23,0,stimul2,NULL,Controller-AcceptabilityJudgment,AcceptabilityJudgment,Ты и Яша сидели в кафе.,NULL,1681386652599,X7133,A,62,16,SV,pl,"Ты и Яша сидели в кафе.",imperf,NA,"NA",NA,NA,NA,NA,Any addtional parameters were appended as additional columns
# 27. Whether or not answer was correct (NULL if N/A).
# 28. Time taken to answer..
# 29. Comments.
1681386678,e07aced4bf5386d30b10c208bcdb6218,PennController,23,0,stimul2,NULL,Controller-AcceptabilityJudgment,AcceptabilityJudgment,NULL,4,1681386652599,X7133,A,62,16,SV,pl,"Ты и Яша сидели в кафе.",imperf,NA,"NA",NA,NA,NA,NA,NULL,3039,Any addtional parameters were appended as additional columns
# 27. Comments.
1681386678,e07aced4bf5386d30b10c208bcdb6218,PennController,23,0,stimul2,NULL,PennController,23,_Trial_,End,1681386652906,X7133,A,62,16,SV,pl,"Ты и Яша сидели в кафе.",imperf,NA,"NA",NA,NA,NA,NA,NULL
1681386678,e07aced4bf5386d30b10c208bcdb6218,PennController,37,0,filler2,NULL,PennController,37,_Trial_,Start,1681386652910,X7133,X,79,17,NA,NA,"Илья и Кирилл отвечали на доски.",NA,bad,"NA",NA,NA,NA,NA,NULL
1681386678,e07aced4bf5386d30b10c208bcdb6218,PennController,37,0,filler2,NULL,Controller-AcceptabilityJudgment,AcceptabilityJudgment,Илья и Кирилл отвечали на доски.,NULL,1681386657173,X7133,X,79,17,NA,NA,"Илья и Кирилл отвечали на доски.",NA,bad,"NA",NA,NA,NA,NA,Any addtional parameters were appended as additional columns
# 27. Whether or not answer was correct (NULL if N/A).
# 28. Time taken to answer..
# 29. Comments.
1681386678,e07aced4bf5386d30b10c208bcdb6218,PennController,37,0,filler2,NULL,Controller-AcceptabilityJudgment,AcceptabilityJudgment,NULL,1,1681386657173,X7133,X,79,17,NA,NA,"Илья и Кирилл отвечали на доски.",NA,bad,"NA",NA,NA,NA,NA,NULL,3254,Any addtional parameters were appended as additional columns
# 27. Comments.
1681386678,e07aced4bf5386d30b10c208bcdb6218,PennController,37,0,filler2,NULL,PennController,37,_Trial_,End,1681386657478,X7133,X,79,17,NA,NA,"Илья и Кирилл отвечали на доски.",NA,bad,"NA",NA,NA,NA,NA,NULL
1681386678,e07aced4bf5386d30b10c208bcdb6218,PennController,17,0,stimul2,NULL,PennController,17,_Trial_,Start,1681386657480,X7133,A,40,10,VS,pl,"В бассейне плавали ты и Андрей.",imperf,NA,"NA",NA,NA,NA,NA,NULL
1681386678,e07aced4bf5386d30b10c208bcdb6218,PennController,17,0,stimul2,NULL,Controller-AcceptabilityJudgment,AcceptabilityJudgment,В бассейне плавали ты и Андрей.,NULL,1681386660409,X7133,A,40,10,VS,pl,"В бассейне плавали ты и Андрей.",imperf,NA,"NA",NA,NA,NA,NA,Any addtional parameters were appended as additional columns
# 27. Whether or not answer was correct (NULL if N/A).
# 28. Time taken to answer..
# 29. Comments.
1681386678,e07aced4bf5386d30b10c208bcdb6218,PennController,17,0,stimul2,NULL,Controller-AcceptabilityJudgment,AcceptabilityJudgment,NULL,3,1681386660409,X7133,A,40,10,VS,pl,"В бассейне плавали ты и Андрей.",imperf,NA,"NA",NA,NA,NA,NA,NULL,1918,Any addtional parameters were appended as additional columns
# 27. Comments.
1681386678,e07aced4bf5386d30b10c208bcdb6218,PennController,17,0,stimul2,NULL,PennController,17,_Trial_,End,1681386660718,X7133,A,40,10,VS,pl,"В бассейне плавали ты и Андрей.",imperf,NA,"NA",NA,NA,NA,NA,NULL
1681386678,e07aced4bf5386d30b10c208bcdb6218,PennController,38,0,filler2,NULL,PennController,38,_Trial_,Start,1681386660723,X7133,X,72,17,NA,NA,"На кнопку нажали Никита и Слава.",NA,good,"NA",NA,NA,NA,NA,NULL
1681386678,e07aced4bf5386d30b10c208bcdb6218,PennController,38,0,filler2,NULL,Controller-AcceptabilityJudgment,AcceptabilityJudgment,На кнопку нажали Никита и Слава.,NULL,1681386664038,X7133,X,72,17,NA,NA,"На кнопку нажали Никита и Слава.",NA,good,"NA",NA,NA,NA,NA,Any addtional parameters were appended as additional columns
# 27. Whether or not answer was correct (NULL if N/A).
# 28. Time taken to answer..
# 29. Comments.
1681386678,e07aced4bf5386d30b10c208bcdb6218,PennController,38,0,filler2,NULL,Controller-AcceptabilityJudgment,AcceptabilityJudgment,NULL,7,1681386664038,X7133,X,72,17,NA,NA,"На кнопку нажали Никита и Слава.",NA,good,"NA",NA,NA,NA,NA,NULL,2304,Any addtional parameters were appended as additional columns
# 27. Comments.
1681386678,e07aced4bf5386d30b10c208bcdb6218,PennController,38,0,filler2,NULL,PennController,38,_Trial_,End,1681386664343,X7133,X,72,17,NA,NA,"На кнопку нажали Никита и Слава.",NA,good,"NA",NA,NA,NA,NA,NULL
1681386678,e07aced4bf5386d30b10c208bcdb6218,PennController,19,0,stimul2,NULL,PennController,19,_Trial_,Start,1681386664346,X7133,A,46,12,SV,pl,"Ты и Лёва ждали в машине.",imperf,NA,"NA",NA,NA,NA,NA,NULL
1681386678,e07aced4bf5386d30b10c208bcdb6218,PennController,19,0,stimul2,NULL,Controller-AcceptabilityJudgment,AcceptabilityJudgment,Ты и Лёва ждали в машине.,NULL,1681386667343,X7133,A,46,12,SV,pl,"Ты и Лёва ждали в машине.",imperf,NA,"NA",NA,NA,NA,NA,Any addtional parameters were appended as additional columns
# 27. Whether or not answer was correct (NULL if N/A).
# 28. Time taken to answer..
# 29. Comments.
1681386678,e07aced4bf5386d30b10c208bcdb6218,PennController,19,0,stimul2,NULL,Controller-AcceptabilityJudgment,AcceptabilityJudgment,NULL,3,1681386667343,X7133,A,46,12,SV,pl,"Ты и Лёва ждали в машине.",imperf,NA,"NA",NA,NA,NA,NA,NULL,1982,Any addtional parameters were appended as additional columns
# 27. Comments.
1681386678,e07aced4bf5386d30b10c208bcdb6218,PennController,19,0,stimul2,NULL,PennController,19,_Trial_,End,1681386667649,X7133,A,46,12,SV,pl,"Ты и Лёва ждали в машине.",imperf,NA,"NA",NA,NA,NA,NA,NULL
1681386678,e07aced4bf5386d30b10c208bcdb6218,PennController,39,0,filler2,NULL,PennController,39,_Trial_,Start,1681386667653,X7133,X,80,17,NA,NA,"Под опушку добрели Федя и Митя.",NA,bad,"NA",NA,NA,NA,NA,NULL
1681386678,e07aced4bf5386d30b10c208bcdb6218,PennController,39,0,filler2,NULL,Controller-AcceptabilityJudgment,AcceptabilityJudgment,Под опушку добрели Федя и Митя.,NULL,1681386673048,X7133,X,80,17,NA,NA,"Под опушку добрели Федя и Митя.",NA,bad,"NA",NA,NA,NA,NA,Any addtional parameters were appended as additional columns
# 27. Whether or not answer was correct (NULL if N/A).
# 28. Time taken to answer..
# 29. Comments.
1681386678,e07aced4bf5386d30b10c208bcdb6218,PennController,39,0,filler2,NULL,Controller-AcceptabilityJudgment,AcceptabilityJudgment,NULL,1,1681386673048,X7133,X,80,17,NA,NA,"Под опушку добрели Федя и Митя.",NA,bad,"NA",NA,NA,NA,NA,NULL,4386,Any addtional parameters were appended as additional columns
# 27. Comments.
1681386678,e07aced4bf5386d30b10c208bcdb6218,PennController,39,0,filler2,NULL,PennController,39,_Trial_,End,1681386673353,X7133,X,80,17,NA,NA,"Под опушку добрели Федя и Митя.",NA,bad,"NA",NA,NA,NA,NA,NULL
#
# Results on Thu, 13 Apr 2023 11:51:50 GMT
# USER AGENT: Mozilla/5.0 (Windows NT 10.0; Win64; x64; rv:109.0) Gecko/20100101 Firefox/112.0
# Design number was non-random = 0
#
# Columns below this comment are as follows:
# 1. Results reception time.
# 2. MD5 hash of participant's IP address.
# 3. Controller name.
# 4. Order number of item.
# 5. Inner element number.
# 6. Label.
# 7. Latin Square Group.
# 8. PennElementType.
# 9. PennElementName.
# 10. Parameter.
# 11. Value.
# 12. EventTime.
# 13. ParticipantID.
# 14. Comments.
1681386710,b5dfba92a88d6eb0c244ced2164178db,PennController,1,0,anketa,NULL,PennController,0,_Trial_,Start,1681386509114,Z5387,NULL
1681386710,b5dfba92a88d6eb0c244ced2164178db,PennController,1,0,anketa,NULL,TextInput,id_response,First,,1681386511598,Z5387,Control
1681386710,b5dfba92a88d6eb0c244ced2164178db,PennController,1,0,anketa,NULL,TextInput,age_response,First,,1681386513054,Z5387,2
1681386710,b5dfba92a88d6eb0c244ced2164178db,PennController,1,0,anketa,NULL,Scale,gender_response,Choice,мужской,1681386514391,Z5387,NULL
1681386710,b5dfba92a88d6eb0c244ced2164178db,PennController,1,0,anketa,NULL,TextInput,gorod1_response,First,,1681386518004,Z5387,Shift
1681386710,b5dfba92a88d6eb0c244ced2164178db,PennController,1,0,anketa,NULL,TextInput,gorod2_response,First,,1681386523323,Z5387,Control
1681386710,b5dfba92a88d6eb0c244ced2164178db,PennController,1,0,anketa,NULL,Scale,lang_edu_response,Choice,нет,1681386524574,Z5387,NULL
1681386710,b5dfba92a88d6eb0c244ced2164178db,PennController,1,0,anketa,NULL,TextInput,lang_response,First,,1681386527609,Z5387,Shift
1681386710,b5dfba92a88d6eb0c244ced2164178db,PennController,1,0,anketa,NULL,TextInput,id_response,Final,kFiJeO,1681386536399,Z5387,NULL
1681386710,b5dfba92a88d6eb0c244ced2164178db,PennController,1,0,anketa,NULL,TextInput,age_response,Final,26,1681386536399,Z5387,NULL
1681386710,b5dfba92a88d6eb0c244ced2164178db,PennController,1,0,anketa,NULL,TextInput,gorod1_response,Final,Красноярск,1681386536401,Z5387,NULL
1681386710,b5dfba92a88d6eb0c244ced2164178db,PennController,1,0,anketa,NULL,TextInput,gorod2_response,Final,Красноярск,1681386536401,Z5387,NULL
1681386710,b5dfba92a88d6eb0c244ced2164178db,PennController,1,0,anketa,NULL,TextInput,lang_response,Final,Английский,1681386536402,Z5387,NULL
1681386710,b5dfba92a88d6eb0c244ced2164178db,PennController,1,0,anketa,NULL,PennController,0,_Trial_,End,1681386536402,Z5387,NULL
# 13. Comments.
1681386710,b5dfba92a88d6eb0c244ced2164178db,PennController,2,0,instruction,NULL,PennController,1,_Trial_,Start,1681386536409,NULL
1681386710,b5dfba92a88d6eb0c244ced2164178db,PennController,2,0,instruction,NULL,Button,start,Click,Click,1681386564283,NULL
1681386710,b5dfba92a88d6eb0c244ced2164178db,PennController,2,0,instruction,NULL,PennController,1,_Trial_,End,1681386564284,NULL
# 13. ParticipantID.
# 14. group.
# 15. sentence_id.
# 16. lexicalization.
# 17. word_order.
# 18. agreement.
# 19. sentence.
# 20. predicate_type.
# 21. filler_type.
# 22. question.
# 23. answer_1.
# 24. answer_2.
# 25. answer_3.
# 26. correct_answer.
# 27. Comments.
1681386710,b5dfba92a88d6eb0c244ced2164178db,PennController,5,0,training_trials,NULL,PennController,5,_Trial_,Start,1681386564287,Z5387,Tr,289,0,NA,NA,"За процессом следили я и Андрей.",NA,good,"NA",NA,NA,NA,NA,NULL
1681386710,b5dfba92a88d6eb0c244ced2164178db,PennController,5,0,training_trials,NULL,Controller-AcceptabilityJudgment,AcceptabilityJudgment,За процессом следили я и Андрей.,NULL,1681386569101,Z5387,Tr,289,0,NA,NA,"За процессом следили я и Андрей.",NA,good,"NA",NA,NA,NA,NA,Any addtional parameters were appended as additional columns
# 27. Whether or not answer was correct (NULL if N/A).
# 28. Time taken to answer..
# 29. Comments.
1681386710,b5dfba92a88d6eb0c244ced2164178db,PennController,5,0,training_trials,NULL,Controller-AcceptabilityJudgment,AcceptabilityJudgment,NULL,7,1681386569101,Z5387,Tr,289,0,NA,NA,"За процессом следили я и Андрей.",NA,good,"NA",NA,NA,NA,NA,NULL,3787,Any addtional parameters were appended as additional columns
# 27. Comments.
1681386710,b5dfba92a88d6eb0c244ced2164178db,PennController,5,0,training_trials,NULL,PennController,5,_Trial_,End,1681386569411,Z5387,Tr,289,0,NA,NA,"За процессом следили я и Андрей.",NA,good,"NA",NA,NA,NA,NA,NULL
1681386710,b5dfba92a88d6eb0c244ced2164178db,PennController,6,0,training_trials,NULL,PennController,6,_Trial_,Start,1681386569416,Z5387,Tr,290,0,NA,NA,"Вася и Петя выигрывали в матче.",NA,bad,"NA",NA,NA,NA,NA,NULL
1681386710,b5dfba92a88d6eb0c244ced2164178db,PennController,6,0,training_trials,NULL,Controller-AcceptabilityJudgment,AcceptabilityJudgment,Вася и Петя выигрывали в матче.,NULL,1681386574125,Z5387,Tr,290,0,NA,NA,"Вася и Петя выигрывали в матче.",NA,bad,"NA",NA,NA,NA,NA,Any addtional parameters were appended as additional columns
# 27. Whether or not answer was correct (NULL if N/A).
# 28. Time taken to answer..
# 29. Comments.
1681386710,b5dfba92a88d6eb0c244ced2164178db,PennController,6,0,training_trials,NULL,Controller-AcceptabilityJudgment,AcceptabilityJudgment,NULL,5,1681386574125,Z5387,Tr,290,0,NA,NA,"Вася и Петя выигрывали в матче.",NA,bad,"NA",NA,NA,NA,NA,NULL,3682,Any addtional parameters were appended as additional columns
# 27. Comments.
1681386710,b5dfba92a88d6eb0c244ced2164178db,PennController,6,0,training_trials,NULL,PennController,6,_Trial_,End,1681386574446,Z5387,Tr,290,0,NA,NA,"Вася и Петя выигрывали в матче.",NA,bad,"NA",NA,NA,NA,NA,NULL
1681386710,b5dfba92a88d6eb0c244ced2164178db,PennController,7,0,training_trials,NULL,PennController,7,_Trial_,Start,1681386574453,Z5387,Tr,291,0,NA,NA,"В колледже преподавали ты и Коля.",NA,good,"NA",NA,NA,NA,NA,NULL
1681386710,b5dfba92a88d6eb0c244ced2164178db,PennController,7,0,training_trials,NULL,Controller-AcceptabilityJudgment,AcceptabilityJudgment,В колледже преподавали ты и Коля.,NULL,1681386578811,Z5387,Tr,291,0,NA,NA,"В колледже преподавали ты и Коля.",NA,good,"NA",NA,NA,NA,NA,Any addtional parameters were appended as additional columns
# 27. Whether or not answer was correct (NULL if N/A).
# 28. Time taken to answer..
# 29. Comments.
1681386710,b5dfba92a88d6eb0c244ced2164178db,PennController,7,0,training_trials,NULL,Controller-AcceptabilityJudgment,AcceptabilityJudgment,NULL,4,1681386578811,Z5387,Tr,291,0,NA,NA,"В колледже преподавали ты и Коля.",NA,good,"NA",NA,NA,NA,NA,NULL,3342,Any addtional parameters were appended as additional columns
# 27. Comments.
1681386710,b5dfba92a88d6eb0c244ced2164178db,PennController,7,0,training_trials,NULL,PennController,7,_Trial_,End,1681386579121,Z5387,Tr,291,0,NA,NA,"В колледже преподавали ты и Коля.",NA,good,"NA",NA,NA,NA,NA,NULL
# 13. Comments.
1681386710,b5dfba92a88d6eb0c244ced2164178db,PennController,3,0,start,NULL,PennController,2,_Trial_,Start,1681386579123,NULL
1681386710,b5dfba92a88d6eb0c244ced2164178db,PennController,3,0,start,NULL,Button,continue1,Click,Click,1681386580512,NULL
1681386710,b5dfba92a88d6eb0c244ced2164178db,PennController,3,0,start,NULL,PennController,2,_Trial_,End,1681386580513,NULL
# 13. ParticipantID.
# 14. group.
# 15. sentence_id.
# 16. lexicalization.
# 17. word_order.
# 18. agreement.
# 19. sentence.
# 20. predicate_type.
# 21. filler_type.
# 22. question.
# 23. answer_1.
# 24. answer_2.
# 25. answer_3.
# 26. correct_answer.
# 27. Comments.
1681386710,b5dfba92a88d6eb0c244ced2164178db,PennController,24,0,filler1,NULL,PennController,24,_Trial_,Start,1681386580515,Z5387,X,67,17,NA,NA,"Володя и Кеша отдыхали на юге.",NA,good,"NA",NA,NA,NA,NA,NULL
1681386710,b5dfba92a88d6eb0c244ced2164178db,PennController,24,0,filler1,NULL,Controller-AcceptabilityJudgment,AcceptabilityJudgment,Володя и Кеша отдыхали на юге.,NULL,1681386584087,Z5387,X,67,17,NA,NA,"Володя и Кеша отдыхали на юге.",NA,good,"NA",NA,NA,NA,NA,Any addtional parameters were appended as additional columns
# 27. Whether or not answer was correct (NULL if N/A).
# 28. Time taken to answer..
# 29. Comments.
1681386710,b5dfba92a88d6eb0c244ced2164178db,PennController,24,0,filler1,NULL,Controller-AcceptabilityJudgment,AcceptabilityJudgment,NULL,7,1681386584087,Z5387,X,67,17,NA,NA,"Володя и Кеша отдыхали на юге.",NA,good,"NA",NA,NA,NA,NA,NULL,2549,Any addtional parameters were appended as additional columns
# 27. Comments.
1681386710,b5dfba92a88d6eb0c244ced2164178db,PennController,24,0,filler1,NULL,PennController,24,_Trial_,End,1681386584407,Z5387,X,67,17,NA,NA,"Володя и Кеша отдыхали на юге.",NA,good,"NA",NA,NA,NA,NA,NULL
1681386710,b5dfba92a88d6eb0c244ced2164178db,PennController,8,0,stimul1,NULL,PennController,8,_Trial_,Start,1681386584411,Z5387,A,1,1,SV,sg,"Ты и Вася пришёл на вечеринку.",perf,NA,"NA",NA,NA,NA,NA,NULL
1681386710,b5dfba92a88d6eb0c244ced2164178db,PennController,8,0,stimul1,NULL,Controller-AcceptabilityJudgment,AcceptabilityJudgment,Ты и Вася пришёл на вечеринку.,NULL,1681386587708,Z5387,A,1,1,SV,sg,"Ты и Вася пришёл на вечеринку.",perf,NA,"NA",NA,NA,NA,NA,Any addtional parameters were appended as additional columns
# 27. Whether or not answer was correct (NULL if N/A).
# 28. Time taken to answer..
# 29. Comments.
1681386710,b5dfba92a88d6eb0c244ced2164178db,PennController,8,0,stimul1,NULL,Controller-AcceptabilityJudgment,AcceptabilityJudgment,NULL,4,1681386587708,Z5387,A,1,1,SV,sg,"Ты и Вася пришёл на вечеринку.",perf,NA,"NA",NA,NA,NA,NA,NULL,2285,Any addtional parameters were appended as additional columns
# 27. Comments.
1681386710,b5dfba92a88d6eb0c244ced2164178db,PennController,8,0,stimul1,NULL,PennController,8,_Trial_,End,1681386588012,Z5387,A,1,1,SV,sg,"Ты и Вася пришёл на вечеринку.",perf,NA,"NA",NA,NA,NA,NA,NULL
1681386710,b5dfba92a88d6eb0c244ced2164178db,PennController,25,0,filler1,NULL,PennController,25,_Trial_,Start,1681386588016,Z5387,X,73,17,NA,NA,"Андрей и Коля ушли по киоск.",NA,bad,"NA",NA,NA,NA,NA,NULL
1681386710,b5dfba92a88d6eb0c244ced2164178db,PennController,25,0,filler1,NULL,Controller-AcceptabilityJudgment,AcceptabilityJudgment,Андрей и Коля ушли по киоск.,NULL,1681386592120,Z5387,X,73,17,NA,NA,"Андрей и Коля ушли по киоск.",NA,bad,"NA",NA,NA,NA,NA,Any addtional parameters were appended as additional columns
# 27. Whether or not answer was correct (NULL if N/A).
# 28. Time taken to answer..
# 29. Comments.
1681386710,b5dfba92a88d6eb0c244ced2164178db,PennController,25,0,filler1,NULL,Controller-AcceptabilityJudgment,AcceptabilityJudgment,NULL,1,1681386592120,Z5387,X,73,17,NA,NA,"Андрей и Коля ушли по киоск.",NA,bad,"NA",NA,NA,NA,NA,NULL,3083,Any addtional parameters were appended as additional columns
# 27. Comments.
1681386710,b5dfba92a88d6eb0c244ced2164178db,PennController,25,0,filler1,NULL,PennController,25,_Trial_,End,1681386592434,Z5387,X,73,17,NA,NA,"Андрей и Коля ушли по киоск.",NA,bad,"NA",NA,NA,NA,NA,NULL
1681386710,b5dfba92a88d6eb0c244ced2164178db,PennController,15,0,stimul1,NULL,PennController,15,_Trial_,Start,1681386592437,Z5387,A,30,8,SV,pl,"Ты и Володя стояли на мосту.",imperf,NA,"NA",NA,NA,NA,NA,NULL
1681386710,b5dfba92a88d6eb0c244ced2164178db,PennController,15,0,stimul1,NULL,Controller-AcceptabilityJudgment,AcceptabilityJudgment,Ты и Володя стояли на мосту.,NULL,1681386595758,Z5387,A,30,8,SV,pl,"Ты и Володя стояли на мосту.",imperf,NA,"NA",NA,NA,NA,NA,Any addtional parameters were appended as additional columns
# 27. Whether or not answer was correct (NULL if N/A).
# 28. Time taken to answer..
# 29. Comments.
1681386710,b5dfba92a88d6eb0c244ced2164178db,PennController,15,0,stimul1,NULL,Controller-AcceptabilityJudgment,AcceptabilityJudgment,NULL,3,1681386595758,Z5387,A,30,8,SV,pl,"Ты и Володя стояли на мосту.",imperf,NA,"NA",NA,NA,NA,NA,NULL,2296,Any addtional parameters were appended as additional columns
# 27. Comments.
1681386710,b5dfba92a88d6eb0c244ced2164178db,PennController,15,0,stimul1,NULL,PennController,15,_Trial_,End,1681386596071,Z5387,A,30,8,SV,pl,"Ты и Володя стояли на мосту.",imperf,NA,"NA",NA,NA,NA,NA,NULL
1681386710,b5dfba92a88d6eb0c244ced2164178db,PennController,26,0,filler1,NULL,PennController,26,_Trial_,Start,1681386596075,Z5387,X,68,17,NA,NA,"На машине ездили Илья и Лёва.",NA,good,"NA",NA,NA,NA,NA,NULL
1681386710,b5dfba92a88d6eb0c244ced2164178db,PennController,26,0,filler1,NULL,Controller-AcceptabilityJudgment,AcceptabilityJudgment,На машине ездили Илья и Лёва.,NULL,1681386599018,Z5387,X,68,17,NA,NA,"На машине ездили Илья и Лёва.",NA,good,"NA",NA,NA,NA,NA,Any addtional parameters were appended as additional columns
# 27. Whether or not answer was correct (NULL if N/A).
# 28. Time taken to answer..
# 29. Comments.
1681386710,b5dfba92a88d6eb0c244ced2164178db,PennController,26,0,filler1,NULL,Controller-AcceptabilityJudgment,AcceptabilityJudgment,NULL,7,1681386599018,Z5387,X,68,17,NA,NA,"На машине ездили Илья и Лёва.",NA,good,"NA",NA,NA,NA,NA,NULL,1923,Any addtional parameters were appended as additional columns
# 27. Comments.
1681386710,b5dfba92a88d6eb0c244ced2164178db,PennController,26,0,filler1,NULL,PennController,26,_Trial_,End,1681386599327,Z5387,X,68,17,NA,NA,"На машине ездили Илья и Лёва.",NA,good,"NA",NA,NA,NA,NA,NULL
1681386710,b5dfba92a88d6eb0c244ced2164178db,PennController,14,0,stimul1,NULL,PennController,14,_Trial_,Start,1681386599329,Z5387,A,27,7,VS,sg,"В коридоре постоял ты и Дима.",perf,NA,"NA",NA,NA,NA,NA,NULL
1681386710,b5dfba92a88d6eb0c244ced2164178db,PennController,14,0,stimul1,NULL,Controller-AcceptabilityJudgment,AcceptabilityJudgment,В коридоре постоял ты и Дима.,NULL,1681386602167,Z5387,A,27,7,VS,sg,"В коридоре постоял ты и Дима.",perf,NA,"NA",NA,NA,NA,NA,Any addtional parameters were appended as additional columns
# 27. Whether or not answer was correct (NULL if N/A).
# 28. Time taken to answer..
# 29. Comments.
1681386710,b5dfba92a88d6eb0c244ced2164178db,PennController,14,0,stimul1,NULL,Controller-AcceptabilityJudgment,AcceptabilityJudgment,NULL,3,1681386602167,Z5387,A,27,7,VS,sg,"В коридоре постоял ты и Дима.",perf,NA,"NA",NA,NA,NA,NA,NULL,1821,Any addtional parameters were appended as additional columns
# 27. Comments.
1681386710,b5dfba92a88d6eb0c244ced2164178db,PennController,14,0,stimul1,NULL,PennController,14,_Trial_,End,1681386602474,Z5387,A,27,7,VS,sg,"В коридоре постоял ты и Дима.",perf,NA,"NA",NA,NA,NA,NA,NULL
1681386710,b5dfba92a88d6eb0c244ced2164178db,PennController,27,0,filler1,NULL,PennController,27,_Trial_,Start,1681386602477,Z5387,X,74,17,NA,NA,"На коридоре болтали Кеша и Егор.",NA,bad,"NA",NA,NA,NA,NA,NULL
1681386710,b5dfba92a88d6eb0c244ced2164178db,PennController,27,0,filler1,NULL,Controller-AcceptabilityJudgment,AcceptabilityJudgment,На коридоре болтали Кеша и Егор.,NULL,1681386605289,Z5387,X,74,17,NA,NA,"На коридоре болтали Кеша и Егор.",NA,bad,"NA",NA,NA,NA,NA,Any addtional parameters were appended as additional columns
# 27. Whether or not answer was correct (NULL if N/A).
# 28. Time taken to answer..
# 29. Comments.
1681386710,b5dfba92a88d6eb0c244ced2164178db,PennController,27,0,filler1,NULL,Controller-AcceptabilityJudgment,AcceptabilityJudgment,NULL,1,1681386605289,Z5387,X,74,17,NA,NA,"На коридоре болтали Кеша и Егор.",NA,bad,"NA",NA,NA,NA,NA,NULL,1794,Any addtional parameters were appended as additional columns
# 27. Comments.
1681386710,b5dfba92a88d6eb0c244ced2164178db,PennController,27,0,filler1,NULL,PennController,27,_Trial_,End,1681386605609,Z5387,X,74,17,NA,NA,"На коридоре болтали Кеша и Егор.",NA,bad,"NA",NA,NA,NA,NA,NULL
1681386710,b5dfba92a88d6eb0c244ced2164178db,PennController,10,0,stimul1,NULL,PennController,10,_Trial_,Start,1681386605612,Z5387,A,11,3,VS,sg,"В зале подмёл ты и Вова.",perf,NA,"NA",NA,NA,NA,NA,NULL
1681386710,b5dfba92a88d6eb0c244ced2164178db,PennController,10,0,stimul1,NULL,Controller-AcceptabilityJudgment,AcceptabilityJudgment,В зале подмёл ты и Вова.,NULL,1681386608457,Z5387,A,11,3,VS,sg,"В зале подмёл ты и Вова.",perf,NA,"NA",NA,NA,NA,NA,Any addtional parameters were appended as additional columns
# 27. Whether or not answer was correct (NULL if N/A).
# 28. Time taken to answer..
# 29. Comments.
1681386710,b5dfba92a88d6eb0c244ced2164178db,PennController,10,0,stimul1,NULL,Controller-AcceptabilityJudgment,AcceptabilityJudgment,NULL,1,1681386608457,Z5387,A,11,3,VS,sg,"В зале подмёл ты и Вова.",perf,NA,"NA",NA,NA,NA,NA,NULL,1823,Any addtional parameters were appended as additional columns
# 27. Comments.
1681386710,b5dfba92a88d6eb0c244ced2164178db,PennController,10,0,stimul1,NULL,PennController,10,_Trial_,End,1681386608761,Z5387,A,11,3,VS,sg,"В зале подмёл ты и Вова.",perf,NA,"NA",NA,NA,NA,NA,NULL
1681386710,b5dfba92a88d6eb0c244ced2164178db,PennController,28,0,filler1,NULL,PennController,28,_Trial_,Start,1681386608765,Z5387,X,65,17,NA,NA,"Петя и Вася ходили в школу.",NA,good,"Куда ходили Петя и Вася?",В школу,В кафе,В театр,В школу,NULL
1681386710,b5dfba92a88d6eb0c244ced2164178db,PennController,28,0,filler1,NULL,Controller-AcceptabilityJudgment,AcceptabilityJudgment,Петя и Вася ходили в школу.,NULL,1681386611912,Z5387,X,65,17,NA,NA,"Петя и Вася ходили в школу.",NA,good,"Куда ходили Петя и Вася?",В школу,В кафе,В театр,В школу,Any addtional parameters were appended as additional columns
# 27. Whether or not answer was correct (NULL if N/A).
# 28. Time taken to answer..
# 29. Comments.
1681386710,b5dfba92a88d6eb0c244ced2164178db,PennController,28,0,filler1,NULL,Controller-AcceptabilityJudgment,AcceptabilityJudgment,NULL,7,1681386611912,Z5387,X,65,17,NA,NA,"Петя и Вася ходили в школу.",NA,good,"Куда ходили Петя и Вася?",В школу,В кафе,В театр,В школу,NULL,2133,Any addtional parameters were appended as additional columns
1681386710,b5dfba92a88d6eb0c244ced2164178db,PennController,28,0,filler1,NULL,Controller-Question,Question,Куда ходили Петя и Вася?,В школу,1681386614344,Z5387,X,65,17,NA,NA,"Петя и Вася ходили в школу.",NA,good,"Куда ходили Петя и Вася?",В школу,В кафе,В театр,В школу,1,2103,Any addtional parameters were appended as additional columns
# 27. Comments.
1681386710,b5dfba92a88d6eb0c244ced2164178db,PennController,28,0,filler1,NULL,PennController,28,_Trial_,End,1681386614347,Z5387,X,65,17,NA,NA,"Петя и Вася ходили в школу.",NA,good,"Куда ходили Петя и Вася?",В школу,В кафе,В театр,В школу,NULL
1681386710,b5dfba92a88d6eb0c244ced2164178db,PennController,12,0,stimul1,NULL,PennController,12,_Trial_,Start,1681386614348,Z5387,A,17,5,SV,sg,"Ты и Никита сыграл в спектакле.",perf,NA,"NA",NA,NA,NA,NA,NULL
1681386710,b5dfba92a88d6eb0c244ced2164178db,PennController,12,0,stimul1,NULL,Controller-AcceptabilityJudgment,AcceptabilityJudgment,Ты и Никита сыграл в спектакле.,NULL,1681386618960,Z5387,A,17,5,SV,sg,"Ты и Никита сыграл в спектакле.",perf,NA,"NA",NA,NA,NA,NA,Any addtional parameters were appended as additional columns
# 27. Whether or not answer was correct (NULL if N/A).
# 28. Time taken to answer..
# 29. Comments.
1681386710,b5dfba92a88d6eb0c244ced2164178db,PennController,12,0,stimul1,NULL,Controller-AcceptabilityJudgment,AcceptabilityJudgment,NULL,1,1681386618960,Z5387,A,17,5,SV,sg,"Ты и Никита сыграл в спектакле.",perf,NA,"NA",NA,NA,NA,NA,NULL,3593,Any addtional parameters were appended as additional columns
# 27. Comments.
1681386710,b5dfba92a88d6eb0c244ced2164178db,PennController,12,0,stimul1,NULL,PennController,12,_Trial_,End,1681386619274,Z5387,A,17,5,SV,sg,"Ты и Никита сыграл в спектакле.",perf,NA,"NA",NA,NA,NA,NA,NULL
1681386710,b5dfba92a88d6eb0c244ced2164178db,PennController,29,0,filler1,NULL,PennController,29,_Trial_,Start,1681386619277,Z5387,X,75,17,NA,NA,"Кирилл и Федя бродили на лес.",NA,bad,"NA",NA,NA,NA,NA,NULL
1681386710,b5dfba92a88d6eb0c244ced2164178db,PennController,29,0,filler1,NULL,Controller-AcceptabilityJudgment,AcceptabilityJudgment,Кирилл и Федя бродили на лес.,NULL,1681386622279,Z5387,X,75,17,NA,NA,"Кирилл и Федя бродили на лес.",NA,bad,"NA",NA,NA,NA,NA,Any addtional parameters were appended as additional columns
# 27. Whether or not answer was correct (NULL if N/A).
# 28. Time taken to answer..
# 29. Comments.
1681386710,b5dfba92a88d6eb0c244ced2164178db,PennController,29,0,filler1,NULL,Controller-AcceptabilityJudgment,AcceptabilityJudgment,NULL,1,1681386622279,Z5387,X,75,17,NA,NA,"Кирилл и Федя бродили на лес.",NA,bad,"NA",NA,NA,NA,NA,NULL,1982,Any addtional parameters were appended as additional columns
# 27. Comments.
1681386710,b5dfba92a88d6eb0c244ced2164178db,PennController,29,0,filler1,NULL,PennController,29,_Trial_,End,1681386622593,Z5387,X,75,17,NA,NA,"Кирилл и Федя бродили на лес.",NA,bad,"NA",NA,NA,NA,NA,NULL
1681386710,b5dfba92a88d6eb0c244ced2164178db,PennController,13,0,stimul1,NULL,PennController,13,_Trial_,Start,1681386622595,Z5387,A,24,6,VS,pl,"В саду играли ты и Паша.",imperf,NA,"NA",NA,NA,NA,NA,NULL
1681386710,b5dfba92a88d6eb0c244ced2164178db,PennController,13,0,stimul1,NULL,Controller-AcceptabilityJudgment,AcceptabilityJudgment,В саду играли ты и Паша.,NULL,1681386626750,Z5387,A,24,6,VS,pl,"В саду играли ты и Паша.",imperf,NA,"NA",NA,NA,NA,NA,Any addtional parameters were appended as additional columns
# 27. Whether or not answer was correct (NULL if N/A).
# 28. Time taken to answer..
# 29. Comments.
1681386710,b5dfba92a88d6eb0c244ced2164178db,PennController,13,0,stimul1,NULL,Controller-AcceptabilityJudgment,AcceptabilityJudgment,NULL,4,1681386626750,Z5387,A,24,6,VS,pl,"В саду играли ты и Паша.",imperf,NA,"NA",NA,NA,NA,NA,NULL,3140,Any addtional parameters were appended as additional columns
# 27. Comments.
1681386710,b5dfba92a88d6eb0c244ced2164178db,PennController,13,0,stimul1,NULL,PennController,13,_Trial_,End,1681386627062,Z5387,A,24,6,VS,pl,"В саду играли ты и Паша.",imperf,NA,"NA",NA,NA,NA,NA,NULL
1681386710,b5dfba92a88d6eb0c244ced2164178db,PennController,30,0,filler1,NULL,PennController,30,_Trial_,Start,1681386627067,Z5387,X,69,17,NA,NA,"Гриша и Слава пошли на дискотеку.",NA,good,"NA",NA,NA,NA,NA,NULL
1681386710,b5dfba92a88d6eb0c244ced2164178db,PennController,30,0,filler1,NULL,Controller-AcceptabilityJudgment,AcceptabilityJudgment,Гриша и Слава пошли на дискотеку.,NULL,1681386630592,Z5387,X,69,17,NA,NA,"Гриша и Слава пошли на дискотеку.",NA,good,"NA",NA,NA,NA,NA,Any addtional parameters were appended as additional columns
# 27. Whether or not answer was correct (NULL if N/A).
# 28. Time taken to answer..
# 29. Comments.
1681386710,b5dfba92a88d6eb0c244ced2164178db,PennController,30,0,filler1,NULL,Controller-AcceptabilityJudgment,AcceptabilityJudgment,NULL,7,1681386630592,Z5387,X,69,17,NA,NA,"Гриша и Слава пошли на дискотеку.",NA,good,"NA",NA,NA,NA,NA,NULL,2503,Any addtional parameters were appended as additional columns
# 27. Comments.
1681386710,b5dfba92a88d6eb0c244ced2164178db,PennController,30,0,filler1,NULL,PennController,30,_Trial_,End,1681386630921,Z5387,X,69,17,NA,NA,"Гриша и Слава пошли на дискотеку.",NA,good,"NA",NA,NA,NA,NA,NULL
1681386710,b5dfba92a88d6eb0c244ced2164178db,PennController,9,0,stimul1,NULL,PennController,9,_Trial_,Start,1681386630923,Z5387,A,8,2,VS,pl,"В магазин шли ты и Максим.",imperf,NA,"NA",NA,NA,NA,NA,NULL
1681386710,b5dfba92a88d6eb0c244ced2164178db,PennController,9,0,stimul1,NULL,Controller-AcceptabilityJudgment,AcceptabilityJudgment,В магазин шли ты и Максим.,NULL,1681386634343,Z5387,A,8,2,VS,pl,"В магазин шли ты и Максим.",imperf,NA,"NA",NA,NA,NA,NA,Any addtional parameters were appended as additional columns
# 27. Whether or not answer was correct (NULL if N/A).
# 28. Time taken to answer..
# 29. Comments.
1681386710,b5dfba92a88d6eb0c244ced2164178db,PennController,9,0,stimul1,NULL,Controller-AcceptabilityJudgment,AcceptabilityJudgment,NULL,2,1681386634343,Z5387,A,8,2,VS,pl,"В магазин шли ты и Максим.",imperf,NA,"NA",NA,NA,NA,NA,NULL,2409,Any addtional parameters were appended as additional columns
# 27. Comments.
1681386710,b5dfba92a88d6eb0c244ced2164178db,PennController,9,0,stimul1,NULL,PennController,9,_Trial_,End,1681386634657,Z5387,A,8,2,VS,pl,"В магазин шли ты и Максим.",imperf,NA,"NA",NA,NA,NA,NA,NULL
1681386710,b5dfba92a88d6eb0c244ced2164178db,PennController,31,0,filler1,NULL,PennController,31,_Trial_,Start,1681386634660,Z5387,X,76,17,NA,NA,"В улице разговаривали Максим и Гена.",NA,bad,"NA",NA,NA,NA,NA,NULL
1681386710,b5dfba92a88d6eb0c244ced2164178db,PennController,31,0,filler1,NULL,Controller-AcceptabilityJudgment,AcceptabilityJudgment,В улице разговаривали Максим и Гена.,NULL,1681386637472,Z5387,X,76,17,NA,NA,"В улице разговаривали Максим и Гена.",NA,bad,"NA",NA,NA,NA,NA,Any addtional parameters were appended as additional columns
# 27. Whether or not answer was correct (NULL if N/A).
# 28. Time taken to answer..
# 29. Comments.
1681386710,b5dfba92a88d6eb0c244ced2164178db,PennController,31,0,filler1,NULL,Controller-AcceptabilityJudgment,AcceptabilityJudgment,NULL,1,1681386637472,Z5387,X,76,17,NA,NA,"В улице разговаривали Максим и Гена.",NA,bad,"NA",NA,NA,NA,NA,NULL,1790,Any addtional parameters were appended as additional columns
# 27. Comments.
1681386710,b5dfba92a88d6eb0c244ced2164178db,PennController,31,0,filler1,NULL,PennController,31,_Trial_,End,1681386637795,Z5387,X,76,17,NA,NA,"В улице разговаривали Максим и Гена.",NA,bad,"NA",NA,NA,NA,NA,NULL
1681386710,b5dfba92a88d6eb0c244ced2164178db,PennController,11,0,stimul1,NULL,PennController,11,_Trial_,Start,1681386637798,Z5387,A,14,4,SV,pl,"Ты и Ваня подметали на кухне.",imperf,NA,"NA",NA,NA,NA,NA,NULL
1681386710,b5dfba92a88d6eb0c244ced2164178db,PennController,11,0,stimul1,NULL,Controller-AcceptabilityJudgment,AcceptabilityJudgment,Ты и Ваня подметали на кухне.,NULL,1681386641045,Z5387,A,14,4,SV,pl,"Ты и Ваня подметали на кухне.",imperf,NA,"NA",NA,NA,NA,NA,Any addtional parameters were appended as additional columns
# 27. Whether or not answer was correct (NULL if N/A).
# 28. Time taken to answer..
# 29. Comments.
1681386710,b5dfba92a88d6eb0c244ced2164178db,PennController,11,0,stimul1,NULL,Controller-AcceptabilityJudgment,AcceptabilityJudgment,NULL,4,1681386641045,Z5387,A,14,4,SV,pl,"Ты и Ваня подметали на кухне.",imperf,NA,"NA",NA,NA,NA,NA,NULL,2229,Any addtional parameters were appended as additional columns
# 27. Comments.
1681386710,b5dfba92a88d6eb0c244ced2164178db,PennController,11,0,stimul1,NULL,PennController,11,_Trial_,End,1681386641361,Z5387,A,14,4,SV,pl,"Ты и Ваня подметали на кухне.",imperf,NA,"NA",NA,NA,NA,NA,NULL
# 13. Comments.
1681386710,b5dfba92a88d6eb0c244ced2164178db,PennController,4,0,break,NULL,PennController,3,_Trial_,Start,1681386641367,NULL
1681386710,b5dfba92a88d6eb0c244ced2164178db,PennController,4,0,break,NULL,Button,continue2,Click,Click,1681386644028,NULL
1681386710,b5dfba92a88d6eb0c244ced2164178db,PennController,4,0,break,NULL,PennController,3,_Trial_,End,1681386644029,NULL
# 13. ParticipantID.
# 14. group.
# 15. sentence_id.
# 16. lexicalization.
# 17. word_order.
# 18. agreement.
# 19. sentence.
# 20. predicate_type.
# 21. filler_type.
# 22. question.
# 23. answer_1.
# 24. answer_2.
# 25. answer_3.
# 26. correct_answer.
# 27. Comments.
1681386710,b5dfba92a88d6eb0c244ced2164178db,PennController,32,0,filler2,NULL,PennController,32,_Trial_,Start,1681386644030,Z5387,X,70,17,NA,NA,"В университет поступили Лёва и Денис.",NA,good,"NA",NA,NA,NA,NA,NULL
1681386710,b5dfba92a88d6eb0c244ced2164178db,PennController,32,0,filler2,NULL,Controller-AcceptabilityJudgment,AcceptabilityJudgment,В университет поступили Лёва и Денис.,NULL,1681386647293,Z5387,X,70,17,NA,NA,"В университет поступили Лёва и Денис.",NA,good,"NA",NA,NA,NA,NA,Any addtional parameters were appended as additional columns
# 27. Whether or not answer was correct (NULL if N/A).
# 28. Time taken to answer..
# 29. Comments.
1681386710,b5dfba92a88d6eb0c244ced2164178db,PennController,32,0,filler2,NULL,Controller-AcceptabilityJudgment,AcceptabilityJudgment,NULL,7,1681386647293,Z5387,X,70,17,NA,NA,"В университет поступили Лёва и Денис.",NA,good,"NA",NA,NA,NA,NA,NULL,2250,Any addtional parameters were appended as additional columns
# 27. Comments.
1681386710,b5dfba92a88d6eb0c244ced2164178db,PennController,32,0,filler2,NULL,PennController,32,_Trial_,End,1681386647622,Z5387,X,70,17,NA,NA,"В университет поступили Лёва и Денис.",NA,good,"NA",NA,NA,NA,NA,NULL
1681386710,b5dfba92a88d6eb0c244ced2164178db,PennController,22,0,stimul2,NULL,PennController,22,_Trial_,Start,1681386647625,Z5387,A,59,15,VS,sg,"За стол сел ты и Гриша.",perf,NA,"NA",NA,NA,NA,NA,NULL
1681386710,b5dfba92a88d6eb0c244ced2164178db,PennController,22,0,stimul2,NULL,Controller-AcceptabilityJudgment,AcceptabilityJudgment,За стол сел ты и Гриша.,NULL,1681386650847,Z5387,A,59,15,VS,sg,"За стол сел ты и Гриша.",perf,NA,"NA",NA,NA,NA,NA,Any addtional parameters were appended as additional columns
# 27. Whether or not answer was correct (NULL if N/A).
# 28. Time taken to answer..
# 29. Comments.
1681386710,b5dfba92a88d6eb0c244ced2164178db,PennController,22,0,stimul2,NULL,Controller-AcceptabilityJudgment,AcceptabilityJudgment,NULL,1,1681386650847,Z5387,A,59,15,VS,sg,"За стол сел ты и Гриша.",perf,NA,"NA",NA,NA,NA,NA,NULL,2197,Any addtional parameters were appended as additional columns
# 27. Comments.
1681386710,b5dfba92a88d6eb0c244ced2164178db,PennController,22,0,stimul2,NULL,PennController,22,_Trial_,End,1681386651158,Z5387,A,59,15,VS,sg,"За стол сел ты и Гриша.",perf,NA,"NA",NA,NA,NA,NA,NULL
1681386710,b5dfba92a88d6eb0c244ced2164178db,PennController,33,0,filler2,NULL,PennController,33,_Trial_,Start,1681386651160,Z5387,X,77,17,NA,NA,"Вова и Серёжа нырнули над прорубь.",NA,bad,"NA",NA,NA,NA,NA,NULL
1681386710,b5dfba92a88d6eb0c244ced2164178db,PennController,33,0,filler2,NULL,Controller-AcceptabilityJudgment,AcceptabilityJudgment,Вова и Серёжа нырнули над прорубь.,NULL,1681386654673,Z5387,X,77,17,NA,NA,"Вова и Серёжа нырнули над прорубь.",NA,bad,"NA",NA,NA,NA,NA,Any addtional parameters were appended as additional columns
# 27. Whether or not answer was correct (NULL if N/A).
# 28. Time taken to answer..
# 29. Comments.
1681386710,b5dfba92a88d6eb0c244ced2164178db,PennController,33,0,filler2,NULL,Controller-AcceptabilityJudgment,AcceptabilityJudgment,NULL,1,1681386654673,Z5387,X,77,17,NA,NA,"Вова и Серёжа нырнули над прорубь.",NA,bad,"NA",NA,NA,NA,NA,NULL,2504,Any addtional parameters were appended as additional columns
# 27. Comments.
1681386710,b5dfba92a88d6eb0c244ced2164178db,PennController,33,0,filler2,NULL,PennController,33,_Trial_,End,1681386654984,Z5387,X,77,17,NA,NA,"Вова и Серёжа нырнули над прорубь.",NA,bad,"NA",NA,NA,NA,NA,NULL
1681386710,b5dfba92a88d6eb0c244ced2164178db,PennController,19,0,stimul2,NULL,PennController,19,_Trial_,Start,1681386654987,Z5387,A,46,12,SV,pl,"Ты и Лёва ждали в машине.",imperf,NA,"NA",NA,NA,NA,NA,NULL
1681386710,b5dfba92a88d6eb0c244ced2164178db,PennController,19,0,stimul2,NULL,Controller-AcceptabilityJudgment,AcceptabilityJudgment,Ты и Лёва ждали в машине.,NULL,1681386658757,Z5387,A,46,12,SV,pl,"Ты и Лёва ждали в машине.",imperf,NA,"NA",NA,NA,NA,NA,Any addtional parameters were appended as additional columns
# 27. Whether or not answer was correct (NULL if N/A).
# 28. Time taken to answer..
# 29. Comments.
1681386710,b5dfba92a88d6eb0c244ced2164178db,PennController,19,0,stimul2,NULL,Controller-AcceptabilityJudgment,AcceptabilityJudgment,NULL,3,1681386658757,Z5387,A,46,12,SV,pl,"Ты и Лёва ждали в машине.",imperf,NA,"NA",NA,NA,NA,NA,NULL,2762,Any addtional parameters were appended as additional columns
# 27. Comments.
1681386710,b5dfba92a88d6eb0c244ced2164178db,PennController,19,0,stimul2,NULL,PennController,19,_Trial_,End,1681386659083,Z5387,A,46,12,SV,pl,"Ты и Лёва ждали в машине.",imperf,NA,"NA",NA,NA,NA,NA,NULL
1681386710,b5dfba92a88d6eb0c244ced2164178db,PennController,34,0,filler2,NULL,PennController,34,_Trial_,Start,1681386659085,Z5387,X,66,17,NA,NA,"В Москве жили Ваня и Коля.",NA,good,"Где жили Ваня и Коля?",В Ижевске,В Казани,В Москве,В Москве,NULL
1681386710,b5dfba92a88d6eb0c244ced2164178db,PennController,34,0,filler2,NULL,Controller-AcceptabilityJudgment,AcceptabilityJudgment,В Москве жили Ваня и Коля.,NULL,1681386663118,Z5387,X,66,17,NA,NA,"В Москве жили Ваня и Коля.",NA,good,"Где жили Ваня и Коля?",В Ижевске,В Казани,В Москве,В Москве,Any addtional parameters were appended as additional columns
# 27. Whether or not answer was correct (NULL if N/A).
# 28. Time taken to answer..
# 29. Comments.
1681386710,b5dfba92a88d6eb0c244ced2164178db,PennController,34,0,filler2,NULL,Controller-AcceptabilityJudgment,AcceptabilityJudgment,NULL,7,1681386663118,Z5387,X,66,17,NA,NA,"В Москве жили Ваня и Коля.",NA,good,"Где жили Ваня и Коля?",В Ижевске,В Казани,В Москве,В Москве,NULL,3012,Any addtional parameters were appended as additional columns
1681386710,b5dfba92a88d6eb0c244ced2164178db,PennController,34,0,filler2,NULL,Controller-Question,Question,Где жили Ваня и Коля?,В Москве,1681386665234,Z5387,X,66,17,NA,NA,"В Москве жили Ваня и Коля.",NA,good,"Где жили Ваня и Коля?",В Ижевске,В Казани,В Москве,В Москве,1,1808,Any addtional parameters were appended as additional columns
# 27. Comments.
1681386710,b5dfba92a88d6eb0c244ced2164178db,PennController,34,0,filler2,NULL,PennController,34,_Trial_,End,1681386665236,Z5387,X,66,17,NA,NA,"В Москве жили Ваня и Коля.",NA,good,"Где жили Ваня и Коля?",В Ижевске,В Казани,В Москве,В Москве,NULL
1681386710,b5dfba92a88d6eb0c244ced2164178db,PennController,16,0,stimul2,NULL,PennController,16,_Trial_,Start,1681386665237,Z5387,A,33,9,SV,sg,"Ты и Вадим доплыл до финиша.",perf,NA,"NA",NA,NA,NA,NA,NULL
1681386710,b5dfba92a88d6eb0c244ced2164178db,PennController,16,0,stimul2,NULL,Controller-AcceptabilityJudgment,AcceptabilityJudgment,Ты и Вадим доплыл до финиша.,NULL,1681386668368,Z5387,A,33,9,SV,sg,"Ты и Вадим доплыл до финиша.",perf,NA,"NA",NA,NA,NA,NA,Any addtional parameters were appended as additional columns
# 27. Whether or not answer was correct (NULL if N/A).
# 28. Time taken to answer..
# 29. Comments.
1681386710,b5dfba92a88d6eb0c244ced2164178db,PennController,16,0,stimul2,NULL,Controller-AcceptabilityJudgment,AcceptabilityJudgment,NULL,1,1681386668368,Z5387,A,33,9,SV,sg,"Ты и Вадим доплыл до финиша.",perf,NA,"NA",NA,NA,NA,NA,NULL,2110,Any addtional parameters were appended as additional columns
# 27. Comments.
1681386710,b5dfba92a88d6eb0c244ced2164178db,PennController,16,0,stimul2,NULL,PennController,16,_Trial_,End,1681386668676,Z5387,A,33,9,SV,sg,"Ты и Вадим доплыл до финиша.",perf,NA,"NA",NA,NA,NA,NA,NULL
1681386710,b5dfba92a88d6eb0c244ced2164178db,PennController,35,0,filler2,NULL,PennController,35,_Trial_,Start,1681386668679,Z5387,X,78,17,NA,NA,"По финал вышли Артём и Дима.",NA,bad,"NA",NA,NA,NA,NA,NULL
1681386710,b5dfba92a88d6eb0c244ced2164178db,PennController,35,0,filler2,NULL,Controller-AcceptabilityJudgment,AcceptabilityJudgment,По финал вышли Артём и Дима.,NULL,1681386671447,Z5387,X,78,17,NA,NA,"По финал вышли Артём и Дима.",NA,bad,"NA",NA,NA,NA,NA,Any addtional parameters were appended as additional columns
# 27. Whether or not answer was correct (NULL if N/A).
# 28. Time taken to answer..
# 29. Comments.
1681386710,b5dfba92a88d6eb0c244ced2164178db,PennController,35,0,filler2,NULL,Controller-AcceptabilityJudgment,AcceptabilityJudgment,NULL,1,1681386671447,Z5387,X,78,17,NA,NA,"По финал вышли Артём и Дима.",NA,bad,"NA",NA,NA,NA,NA,NULL,1753,Any addtional parameters were appended as additional columns
# 27. Comments.
1681386710,b5dfba92a88d6eb0c244ced2164178db,PennController,35,0,filler2,NULL,PennController,35,_Trial_,End,1681386671751,Z5387,X,78,17,NA,NA,"По финал вышли Артём и Дима.",NA,bad,"NA",NA,NA,NA,NA,NULL
1681386710,b5dfba92a88d6eb0c244ced2164178db,PennController,21,0,stimul2,NULL,PennController,21,_Trial_,Start,1681386671754,Z5387,A,56,14,VS,pl,"На концерте пели ты и Витя.",imperf,NA,"NA",NA,NA,NA,NA,NULL
1681386710,b5dfba92a88d6eb0c244ced2164178db,PennController,21,0,stimul2,NULL,Controller-AcceptabilityJudgment,AcceptabilityJudgment,На концерте пели ты и Витя.,NULL,1681386675036,Z5387,A,56,14,VS,pl,"На концерте пели ты и Витя.",imperf,NA,"NA",NA,NA,NA,NA,Any addtional parameters were appended as additional columns
# 27. Whether or not answer was correct (NULL if N/A).
# 28. Time taken to answer..
# 29. Comments.
1681386710,b5dfba92a88d6eb0c244ced2164178db,PennController,21,0,stimul2,NULL,Controller-AcceptabilityJudgment,AcceptabilityJudgment,NULL,4,1681386675036,Z5387,A,56,14,VS,pl,"На концерте пели ты и Витя.",imperf,NA,"NA",NA,NA,NA,NA,NULL,2276,Any addtional parameters were appended as additional columns
# 27. Comments.
1681386710,b5dfba92a88d6eb0c244ced2164178db,PennController,21,0,stimul2,NULL,PennController,21,_Trial_,End,1681386675346,Z5387,A,56,14,VS,pl,"На концерте пели ты и Витя.",imperf,NA,"NA",NA,NA,NA,NA,NULL
1681386710,b5dfba92a88d6eb0c244ced2164178db,PennController,36,0,filler2,NULL,PennController,36,_Trial_,Start,1681386675348,Z5387,X,71,17,NA,NA,"Лёша и Вася заплатили в кассе.",NA,good,"NA",NA,NA,NA,NA,NULL
1681386710,b5dfba92a88d6eb0c244ced2164178db,PennController,36,0,filler2,NULL,Controller-AcceptabilityJudgment,AcceptabilityJudgment,Лёша и Вася заплатили в кассе.,NULL,1681386679994,Z5387,X,71,17,NA,NA,"Лёша и Вася заплатили в кассе.",NA,good,"NA",NA,NA,NA,NA,Any addtional parameters were appended as additional columns
# 27. Whether or not answer was correct (NULL if N/A).
# 28. Time taken to answer..
# 29. Comments.
1681386710,b5dfba92a88d6eb0c244ced2164178db,PennController,36,0,filler2,NULL,Controller-AcceptabilityJudgment,AcceptabilityJudgment,NULL,7,1681386679994,Z5387,X,71,17,NA,NA,"Лёша и Вася заплатили в кассе.",NA,good,"NA",NA,NA,NA,NA,NULL,3629,Any addtional parameters were appended as additional columns
# 27. Comments.
1681386710,b5dfba92a88d6eb0c244ced2164178db,PennController,36,0,filler2,NULL,PennController,36,_Trial_,End,1681386680300,Z5387,X,71,17,NA,NA,"Лёша и Вася заплатили в кассе.",NA,good,"NA",NA,NA,NA,NA,NULL
1681386710,b5dfba92a88d6eb0c244ced2164178db,PennController,23,0,stimul2,NULL,PennController,23,_Trial_,Start,1681386680303,Z5387,A,62,16,SV,pl,"Ты и Яша сидели в кафе.",imperf,NA,"NA",NA,NA,NA,NA,NULL
1681386710,b5dfba92a88d6eb0c244ced2164178db,PennController,23,0,stimul2,NULL,Controller-AcceptabilityJudgment,AcceptabilityJudgment,Ты и Яша сидели в кафе.,NULL,1681386684187,Z5387,A,62,16,SV,pl,"Ты и Яша сидели в кафе.",imperf,NA,"NA",NA,NA,NA,NA,Any addtional parameters were appended as additional columns
# 27. Whether or not answer was correct (NULL if N/A).
# 28. Time taken to answer..
# 29. Comments.
1681386710,b5dfba92a88d6eb0c244ced2164178db,PennController,23,0,stimul2,NULL,Controller-AcceptabilityJudgment,AcceptabilityJudgment,NULL,2,1681386684187,Z5387,A,62,16,SV,pl,"Ты и Яша сидели в кафе.",imperf,NA,"NA",NA,NA,NA,NA,NULL,2864,Any addtional parameters were appended as additional columns
# 27. Comments.
1681386710,b5dfba92a88d6eb0c244ced2164178db,PennController,23,0,stimul2,NULL,PennController,23,_Trial_,End,1681386684506,Z5387,A,62,16,SV,pl,"Ты и Яша сидели в кафе.",imperf,NA,"NA",NA,NA,NA,NA,NULL
1681386710,b5dfba92a88d6eb0c244ced2164178db,PennController,37,0,filler2,NULL,PennController,37,_Trial_,Start,1681386684509,Z5387,X,79,17,NA,NA,"Илья и Кирилл отвечали на доски.",NA,bad,"NA",NA,NA,NA,NA,NULL
1681386710,b5dfba92a88d6eb0c244ced2164178db,PennController,37,0,filler2,NULL,Controller-AcceptabilityJudgment,AcceptabilityJudgment,Илья и Кирилл отвечали на доски.,NULL,1681386687662,Z5387,X,79,17,NA,NA,"Илья и Кирилл отвечали на доски.",NA,bad,"NA",NA,NA,NA,NA,Any addtional parameters were appended as additional columns
# 27. Whether or not answer was correct (NULL if N/A).
# 28. Time taken to answer..
# 29. Comments.
1681386710,b5dfba92a88d6eb0c244ced2164178db,PennController,37,0,filler2,NULL,Controller-AcceptabilityJudgment,AcceptabilityJudgment,NULL,1,1681386687662,Z5387,X,79,17,NA,NA,"Илья и Кирилл отвечали на доски.",NA,bad,"NA",NA,NA,NA,NA,NULL,2128,Any addtional parameters were appended as additional columns
# 27. Comments.
1681386710,b5dfba92a88d6eb0c244ced2164178db,PennController,37,0,filler2,NULL,PennController,37,_Trial_,End,1681386687977,Z5387,X,79,17,NA,NA,"Илья и Кирилл отвечали на доски.",NA,bad,"NA",NA,NA,NA,NA,NULL
1681386710,b5dfba92a88d6eb0c244ced2164178db,PennController,20,0,stimul2,NULL,PennController,20,_Trial_,Start,1681386687979,Z5387,A,49,13,SV,sg,"Ты и Данила спел на банкете.",perf,NA,"NA",NA,NA,NA,NA,NULL
1681386710,b5dfba92a88d6eb0c244ced2164178db,PennController,20,0,stimul2,NULL,Controller-AcceptabilityJudgment,AcceptabilityJudgment,Ты и Данила спел на банкете.,NULL,1681386691221,Z5387,A,49,13,SV,sg,"Ты и Данила спел на банкете.",perf,NA,"NA",NA,NA,NA,NA,Any addtional parameters were appended as additional columns
# 27. Whether or not answer was correct (NULL if N/A).
# 28. Time taken to answer..
# 29. Comments.
1681386710,b5dfba92a88d6eb0c244ced2164178db,PennController,20,0,stimul2,NULL,Controller-AcceptabilityJudgment,AcceptabilityJudgment,NULL,2,1681386691221,Z5387,A,49,13,SV,sg,"Ты и Данила спел на банкете.",perf,NA,"NA",NA,NA,NA,NA,NULL,2233,Any addtional parameters were appended as additional columns
# 27. Comments.
1681386710,b5dfba92a88d6eb0c244ced2164178db,PennController,20,0,stimul2,NULL,PennController,20,_Trial_,End,1681386691534,Z5387,A,49,13,SV,sg,"Ты и Данила спел на банкете.",perf,NA,"NA",NA,NA,NA,NA,NULL
1681386710,b5dfba92a88d6eb0c244ced2164178db,PennController,38,0,filler2,NULL,PennController,38,_Trial_,Start,1681386691536,Z5387,X,72,17,NA,NA,"На кнопку нажали Никита и Слава.",NA,good,"NA",NA,NA,NA,NA,NULL
1681386710,b5dfba92a88d6eb0c244ced2164178db,PennController,38,0,filler2,NULL,Controller-AcceptabilityJudgment,AcceptabilityJudgment,На кнопку нажали Никита и Слава.,NULL,1681386696039,Z5387,X,72,17,NA,NA,"На кнопку нажали Никита и Слава.",NA,good,"NA",NA,NA,NA,NA,Any addtional parameters were appended as additional columns
# 27. Whether or not answer was correct (NULL if N/A).
# 28. Time taken to answer..
# 29. Comments.
1681386710,b5dfba92a88d6eb0c244ced2164178db,PennController,38,0,filler2,NULL,Controller-AcceptabilityJudgment,AcceptabilityJudgment,NULL,6,1681386696039,Z5387,X,72,17,NA,NA,"На кнопку нажали Никита и Слава.",NA,good,"NA",NA,NA,NA,NA,NULL,3488,Any addtional parameters were appended as additional columns
# 27. Comments.
1681386710,b5dfba92a88d6eb0c244ced2164178db,PennController,38,0,filler2,NULL,PennController,38,_Trial_,End,1681386696344,Z5387,X,72,17,NA,NA,"На кнопку нажали Никита и Слава.",NA,good,"NA",NA,NA,NA,NA,NULL
1681386710,b5dfba92a88d6eb0c244ced2164178db,PennController,18,0,stimul2,NULL,PennController,18,_Trial_,Start,1681386696347,Z5387,A,43,11,VS,sg,"В прихожей подождал ты и Кирилл.",perf,NA,"NA",NA,NA,NA,NA,NULL
1681386710,b5dfba92a88d6eb0c244ced2164178db,PennController,18,0,stimul2,NULL,Controller-AcceptabilityJudgment,AcceptabilityJudgment,В прихожей подождал ты и Кирилл.,NULL,1681386700094,Z5387,A,43,11,VS,sg,"В прихожей подождал ты и Кирилл.",perf,NA,"NA",NA,NA,NA,NA,Any addtional parameters were appended as additional columns
# 27. Whether or not answer was correct (NULL if N/A).
# 28. Time taken to answer..
# 29. Comments.
1681386710,b5dfba92a88d6eb0c244ced2164178db,PennController,18,0,stimul2,NULL,Controller-AcceptabilityJudgment,AcceptabilityJudgment,NULL,1,1681386700094,Z5387,A,43,11,VS,sg,"В прихожей подождал ты и Кирилл.",perf,NA,"NA",NA,NA,NA,NA,NULL,2729,Any addtional parameters were appended as additional columns
# 27. Comments.
1681386710,b5dfba92a88d6eb0c244ced2164178db,PennController,18,0,stimul2,NULL,PennController,18,_Trial_,End,1681386700402,Z5387,A,43,11,VS,sg,"В прихожей подождал ты и Кирилл.",perf,NA,"NA",NA,NA,NA,NA,NULL
1681386710,b5dfba92a88d6eb0c244ced2164178db,PennController,39,0,filler2,NULL,PennController,39,_Trial_,Start,1681386700406,Z5387,X,80,17,NA,NA,"Под опушку добрели Федя и Митя.",NA,bad,"NA",NA,NA,NA,NA,NULL
1681386710,b5dfba92a88d6eb0c244ced2164178db,PennController,39,0,filler2,NULL,Controller-AcceptabilityJudgment,AcceptabilityJudgment,Под опушку добрели Федя и Митя.,NULL,1681386703596,Z5387,X,80,17,NA,NA,"Под опушку добрели Федя и Митя.",NA,bad,"NA",NA,NA,NA,NA,Any addtional parameters were appended as additional columns
# 27. Whether or not answer was correct (NULL if N/A).
# 28. Time taken to answer..
# 29. Comments.
1681386710,b5dfba92a88d6eb0c244ced2164178db,PennController,39,0,filler2,NULL,Controller-AcceptabilityJudgment,AcceptabilityJudgment,NULL,1,1681386703596,Z5387,X,80,17,NA,NA,"Под опушку добрели Федя и Митя.",NA,bad,"NA",NA,NA,NA,NA,NULL,2173,Any addtional parameters were appended as additional columns
# 27. Comments.
1681386710,b5dfba92a88d6eb0c244ced2164178db,PennController,39,0,filler2,NULL,PennController,39,_Trial_,End,1681386703915,Z5387,X,80,17,NA,NA,"Под опушку добрели Федя и Митя.",NA,bad,"NA",NA,NA,NA,NA,NULL
1681386710,b5dfba92a88d6eb0c244ced2164178db,PennController,17,0,stimul2,NULL,PennController,17,_Trial_,Start,1681386703917,Z5387,A,40,10,VS,pl,"В бассейне плавали ты и Андрей.",imperf,NA,"NA",NA,NA,NA,NA,NULL
1681386710,b5dfba92a88d6eb0c244ced2164178db,PennController,17,0,stimul2,NULL,Controller-AcceptabilityJudgment,AcceptabilityJudgment,В бассейне плавали ты и Андрей.,NULL,1681386709191,Z5387,A,40,10,VS,pl,"В бассейне плавали ты и Андрей.",imperf,NA,"NA",NA,NA,NA,NA,Any addtional parameters were appended as additional columns
# 27. Whether or not answer was correct (NULL if N/A).
# 28. Time taken to answer..
# 29. Comments.
1681386710,b5dfba92a88d6eb0c244ced2164178db,PennController,17,0,stimul2,NULL,Controller-AcceptabilityJudgment,AcceptabilityJudgment,NULL,5,1681386709191,Z5387,A,40,10,VS,pl,"В бассейне плавали ты и Андрей.",imperf,NA,"NA",NA,NA,NA,NA,NULL,4254,Any addtional parameters were appended as additional columns
# 27. Comments.
1681386710,b5dfba92a88d6eb0c244ced2164178db,PennController,17,0,stimul2,NULL,PennController,17,_Trial_,End,1681386709499,Z5387,A,40,10,VS,pl,"В бассейне плавали ты и Андрей.",imperf,NA,"NA",NA,NA,NA,NA,NULL
#
# Results on Thu, 13 Apr 2023 11:52:09 GMT
# USER AGENT: Mozilla/5.0 (Windows NT 10.0; Win64; x64) AppleWebKit/537.36 (KHTML, like Gecko) Chrome/110.0.0.0 YaBrowser/23.3.1.895 Yowser/2.5 Safari/537.36
# Design number was non-random = 0
#
# Columns below this comment are as follows:
# 1. Results reception time.
# 2. MD5 hash of participant's IP address.
# 3. Controller name.
# 4. Order number of item.
# 5. Inner element number.
# 6. Label.
# 7. Latin Square Group.
# 8. PennElementType.
# 9. PennElementName.
# 10. Parameter.
# 11. Value.
# 12. EventTime.
# 13. ParticipantID.
# 14. Comments.
1681386729,cb70780339f566bf3722f6ad7f41b343,PennController,1,0,anketa,NULL,PennController,0,_Trial_,Start,1681386475104,K183,NULL
1681386729,cb70780339f566bf3722f6ad7f41b343,PennController,1,0,anketa,NULL,TextInput,id_response,Final,Sglu2f,1681386519081,K183,NULL
1681386729,cb70780339f566bf3722f6ad7f41b343,PennController,1,0,anketa,NULL,TextInput,age_response,Final,38,1681386519081,K183,NULL
1681386729,cb70780339f566bf3722f6ad7f41b343,PennController,1,0,anketa,NULL,TextInput,age_response,First,,1681386488025,K183,3
1681386729,cb70780339f566bf3722f6ad7f41b343,PennController,1,0,anketa,NULL,TextInput,gorod1_response,Final,новокузнецк,1681386519082,K183,NULL
1681386729,cb70780339f566bf3722f6ad7f41b343,PennController,1,0,anketa,NULL,TextInput,gorod1_response,First,,1681386496479,K183,н
1681386729,cb70780339f566bf3722f6ad7f41b343,PennController,1,0,anketa,NULL,TextInput,gorod2_response,Final,новокузнецк,1681386519082,K183,NULL
1681386729,cb70780339f566bf3722f6ad7f41b343,PennController,1,0,anketa,NULL,TextInput,gorod2_response,First,,1681386502659,K183,н
1681386729,cb70780339f566bf3722f6ad7f41b343,PennController,1,0,anketa,NULL,TextInput,lang_response,Final,русский,1681386519082,K183,NULL
1681386729,cb70780339f566bf3722f6ad7f41b343,PennController,1,0,anketa,NULL,TextInput,lang_response,First,,1681386514070,K183,р
1681386729,cb70780339f566bf3722f6ad7f41b343,PennController,1,0,anketa,NULL,Scale,gender_response,Choice,женский,1681386490935,K183,NULL
1681386729,cb70780339f566bf3722f6ad7f41b343,PennController,1,0,anketa,NULL,Scale,lang_edu_response,Choice,нет,1681386509870,K183,NULL
1681386729,cb70780339f566bf3722f6ad7f41b343,PennController,1,0,anketa,NULL,PennController,0,_Trial_,End,1681386519083,K183,NULL
# 13. Comments.
1681386729,cb70780339f566bf3722f6ad7f41b343,PennController,2,0,instruction,NULL,PennController,1,_Trial_,Start,1681386519086,NULL
1681386729,cb70780339f566bf3722f6ad7f41b343,PennController,2,0,instruction,NULL,Button,start,Click,Click,1681386527474,NULL
1681386729,cb70780339f566bf3722f6ad7f41b343,PennController,2,0,instruction,NULL,PennController,1,_Trial_,End,1681386527481,NULL
# 13. ParticipantID.
# 14. group.
# 15. sentence_id.
# 16. lexicalization.
# 17. word_order.
# 18. agreement.
# 19. sentence.
# 20. predicate_type.
# 21. filler_type.
# 22. question.
# 23. answer_1.
# 24. answer_2.
# 25. answer_3.
# 26. correct_answer.
# 27. Comments.
1681386729,cb70780339f566bf3722f6ad7f41b343,PennController,5,0,training_trials,NULL,PennController,5,_Trial_,Start,1681386527485,K183,Tr,289,0,NA,NA,"За процессом следили я и Андрей.",NA,good,"NA",NA,NA,NA,NA,NULL
1681386729,cb70780339f566bf3722f6ad7f41b343,PennController,5,0,training_trials,NULL,Controller-AcceptabilityJudgment,AcceptabilityJudgment,За процессом следили я и Андрей.,NULL,1681386538548,K183,Tr,289,0,NA,NA,"За процессом следили я и Андрей.",NA,good,"NA",NA,NA,NA,NA,Any addtional parameters were appended as additional columns
# 27. Whether or not answer was correct (NULL if N/A).
# 28. Time taken to answer..
# 29. Comments.
1681386729,cb70780339f566bf3722f6ad7f41b343,PennController,5,0,training_trials,NULL,Controller-AcceptabilityJudgment,AcceptabilityJudgment,NULL,NULL,1681386538548,K183,Tr,289,0,NA,NA,"За процессом следили я и Андрей.",NA,good,"NA",NA,NA,NA,NA,NULL,10017,Any addtional parameters were appended as additional columns
# 27. Comments.
1681386729,cb70780339f566bf3722f6ad7f41b343,PennController,5,0,training_trials,NULL,PennController,5,_Trial_,End,1681386538865,K183,Tr,289,0,NA,NA,"За процессом следили я и Андрей.",NA,good,"NA",NA,NA,NA,NA,NULL
1681386729,cb70780339f566bf3722f6ad7f41b343,PennController,6,0,training_trials,NULL,PennController,6,_Trial_,Start,1681386538872,K183,Tr,290,0,NA,NA,"Вася и Петя выигрывали в матче.",NA,bad,"NA",NA,NA,NA,NA,NULL
1681386729,cb70780339f566bf3722f6ad7f41b343,PennController,6,0,training_trials,NULL,Controller-AcceptabilityJudgment,AcceptabilityJudgment,Вася и Петя выигрывали в матче.,NULL,1681386544340,K183,Tr,290,0,NA,NA,"Вася и Петя выигрывали в матче.",NA,bad,"NA",NA,NA,NA,NA,Any addtional parameters were appended as additional columns
# 27. Whether or not answer was correct (NULL if N/A).
# 28. Time taken to answer..
# 29. Comments.
1681386729,cb70780339f566bf3722f6ad7f41b343,PennController,6,0,training_trials,NULL,Controller-AcceptabilityJudgment,AcceptabilityJudgment,NULL,7,1681386544340,K183,Tr,290,0,NA,NA,"Вася и Петя выигрывали в матче.",NA,bad,"NA",NA,NA,NA,NA,NULL,4444,Any addtional parameters were appended as additional columns
# 27. Comments.
1681386729,cb70780339f566bf3722f6ad7f41b343,PennController,6,0,training_trials,NULL,PennController,6,_Trial_,End,1681386544650,K183,Tr,290,0,NA,NA,"Вася и Петя выигрывали в матче.",NA,bad,"NA",NA,NA,NA,NA,NULL
1681386729,cb70780339f566bf3722f6ad7f41b343,PennController,7,0,training_trials,NULL,PennController,7,_Trial_,Start,1681386544656,K183,Tr,291,0,NA,NA,"В колледже преподавали ты и Коля.",NA,good,"NA",NA,NA,NA,NA,NULL
1681386729,cb70780339f566bf3722f6ad7f41b343,PennController,7,0,training_trials,NULL,Controller-AcceptabilityJudgment,AcceptabilityJudgment,В колледже преподавали ты и Коля.,NULL,1681386550954,K183,Tr,291,0,NA,NA,"В колледже преподавали ты и Коля.",NA,good,"NA",NA,NA,NA,NA,Any addtional parameters were appended as additional columns
# 27. Whether or not answer was correct (NULL if N/A).
# 28. Time taken to answer..
# 29. Comments.
1681386729,cb70780339f566bf3722f6ad7f41b343,PennController,7,0,training_trials,NULL,Controller-AcceptabilityJudgment,AcceptabilityJudgment,NULL,1,1681386550954,K183,Tr,291,0,NA,NA,"В колледже преподавали ты и Коля.",NA,good,"NA",NA,NA,NA,NA,NULL,5279,Any addtional parameters were appended as additional columns
# 27. Comments.
1681386729,cb70780339f566bf3722f6ad7f41b343,PennController,7,0,training_trials,NULL,PennController,7,_Trial_,End,1681386551263,K183,Tr,291,0,NA,NA,"В колледже преподавали ты и Коля.",NA,good,"NA",NA,NA,NA,NA,NULL
# 13. Comments.
1681386729,cb70780339f566bf3722f6ad7f41b343,PennController,3,0,start,NULL,PennController,2,_Trial_,Start,1681386551268,NULL
1681386729,cb70780339f566bf3722f6ad7f41b343,PennController,3,0,start,NULL,Button,continue1,Click,Click,1681386555652,NULL
1681386729,cb70780339f566bf3722f6ad7f41b343,PennController,3,0,start,NULL,PennController,2,_Trial_,End,1681386555654,NULL
# 13. ParticipantID.
# 14. group.
# 15. sentence_id.
# 16. lexicalization.
# 17. word_order.
# 18. agreement.
# 19. sentence.
# 20. predicate_type.
# 21. filler_type.
# 22. question.
# 23. answer_1.
# 24. answer_2.
# 25. answer_3.
# 26. correct_answer.
# 27. Comments.
1681386729,cb70780339f566bf3722f6ad7f41b343,PennController,24,0,filler1,NULL,PennController,24,_Trial_,Start,1681386555657,K183,X,67,17,NA,NA,"Володя и Кеша отдыхали на юге.",NA,good,"NA",NA,NA,NA,NA,NULL
1681386729,cb70780339f566bf3722f6ad7f41b343,PennController,24,0,filler1,NULL,Controller-AcceptabilityJudgment,AcceptabilityJudgment,Володя и Кеша отдыхали на юге.,NULL,1681386559556,K183,X,67,17,NA,NA,"Володя и Кеша отдыхали на юге.",NA,good,"NA",NA,NA,NA,NA,Any addtional parameters were appended as additional columns
# 27. Whether or not answer was correct (NULL if N/A).
# 28. Time taken to answer..
# 29. Comments.
1681386729,cb70780339f566bf3722f6ad7f41b343,PennController,24,0,filler1,NULL,Controller-AcceptabilityJudgment,AcceptabilityJudgment,NULL,7,1681386559556,K183,X,67,17,NA,NA,"Володя и Кеша отдыхали на юге.",NA,good,"NA",NA,NA,NA,NA,NULL,2872,Any addtional parameters were appended as additional columns
# 27. Comments.
1681386729,cb70780339f566bf3722f6ad7f41b343,PennController,24,0,filler1,NULL,PennController,24,_Trial_,End,1681386559863,K183,X,67,17,NA,NA,"Володя и Кеша отдыхали на юге.",NA,good,"NA",NA,NA,NA,NA,NULL
1681386729,cb70780339f566bf3722f6ad7f41b343,PennController,9,0,stimul1,NULL,PennController,9,_Trial_,Start,1681386559868,K183,A,8,2,VS,pl,"В магазин шли ты и Максим.",imperf,NA,"NA",NA,NA,NA,NA,NULL
1681386729,cb70780339f566bf3722f6ad7f41b343,PennController,9,0,stimul1,NULL,Controller-AcceptabilityJudgment,AcceptabilityJudgment,В магазин шли ты и Максим.,NULL,1681386567151,K183,A,8,2,VS,pl,"В магазин шли ты и Максим.",imperf,NA,"NA",NA,NA,NA,NA,Any addtional parameters were appended as additional columns
# 27. Whether or not answer was correct (NULL if N/A).
# 28. Time taken to answer..
# 29. Comments.
